acc_x,acc_y,acc_z,vel_x,vel_y,vel_z,path_x,path_y,path_z,roll,pitch,yaw
-0.022540922699340767,0.027295926038329327,0.024997839027675547,-2.2540922195511884E-4,2.7295925428217835E-4,2.49978384689303E-4,-2.2540921691683012E-6,2.7295924818106358E-6,2.499783791018507E-6,-0.020101238335885827,-0.01715499807578548,-0.29111678939427305
-0.20257895448592025,-0.01847953641950036,-0.07331270774250212,-0.0022511987215343967,8.816389421767302E-5,-4.83148676349051E-4,-2.4766078881330145E-5,3.6112314042812E-6,-2.331702864479858E-6,-0.027345537559075345,-0.023918971065322422,-0.3987048304702413
-0.06496284844175708,0.03991347476224272,-0.043259294071643695,-0.0029008271914316396,4.872986329187434E-4,-9.157416073962822E-4,-5.377435014726114E-5,8.4842176245489E-6,-1.1489118733758481E-5,-0.02920946662327978,-0.02635900737288222,-0.4270722633600343
0.009521613135896936,0.00719691401753026,-0.0017127222391790922,-0.0028056110622009167,5.592677714854104E-4,-9.328688294052499E-4,-8.183046014216736E-5,1.4076895214396918E-5,-2.0817806819298546E-5,-0.02976600357165276,-0.028094597361696883,-0.43397127223437626
0.05720398552324521,-0.04282308676159524,0.01832700684892981,-0.0022335712197545515,1.3103691344116376E-4,-7.49598765012357E-4,-1.041661718404708E-4,1.5387264319519522E-5,-2.8313794301873737E-5,-0.030017748500967622,-0.028482717353327188,-0.4357673061123811
0.12765066751668888,-0.07073477887286482,0.02223543502810266,-9.570645731198104E-4,-5.763108594770293E-4,-5.272444197013374E-4,-1.137368173577483E-4,9.624155853564746E-6,-3.35862383810388E-5,-0.02988439464100008,-0.028590943909927596,-0.43635605034175984
0.05302013141775618,-0.06407665768084728,0.02824960181625719,-4.268632707931714E-4,-0.001217077421963253,-2.447484078530436E-4,-1.1800544997026863E-4,-2.546618094029781E-6,-3.6033722404863704E-5,-0.02935611649685256,-0.028259151332384755,-0.43686328650118794
0.031551696826971266,0.007909701647531069,0.017450527068117692,-1.1134630957581254E-4,-0.0011379804072558983,-7.02431410723634E-5,-1.1911891304113892E-4,-1.3926421912230322E-5,-3.6736153799886775E-5,-0.029288957928832442,-0.027834541747219887,-0.43977106345179323
-0.09166811632531105,0.01370590257145854,-0.012008486060199034,-0.0010280274523395024,-0.0010009213846048207,-1.9032799899024796E-4,-1.293991873347519E-4,-2.3935635534555165E-5,-3.863943374724763E-5,-0.029293132192600484,-0.02757629653680957,-0.4402416228319129
-0.09612420562893503,0.05997172250882259,-0.03884798837829272,-0.0019892694871434186,-4.0120417292131936E-4,-5.788078740899731E-4,-1.492918817615497E-4,-2.7947677174092237E-5,-4.442751235877372E-5,-0.029359942778945172,-0.027942850419046046,-0.4405210843812811
-0.15052897186114378,0.04947156739474892,-0.054752804487326,-0.0034945591721090093,9.351148996841285E-5,-0.0011263359067250275,-1.8423747270154494E-4,-2.7012562295309555E-5,-5.56908711742683E-5,-0.029515223507587493,-0.02826639134448775,-0.44255658603043346
-0.11940773697618977,-0.0239316713954317,-0.037645349419884344,-0.0046886365151811975,-1.4580521863675875E-4,-0.0015027893925094796,-2.3112383680536498E-4,-2.8470614449087138E-5,-7.071876476346349E-5,-0.0295045985023489,-0.028682243408721938,-0.4432638219997926
-3.931900883560305E-4,-0.025457772086375178,-0.017820753433765903,-0.004692568415976873,-4.0038293381025505E-4,-0.0016809969228638898,-2.780495199162629E-4,-3.247444369769713E-5,-8.75287336163703E-5,-0.029286060866712052,-0.028825923753865328,-0.4426943868825601
0.11127109610256976,-0.037627232960119994,-0.019965833191333104,-0.0035798574798222033,-7.76655255001113E-4,-0.0018806552503145093,-3.1384809391432443E-4,-4.024099607411228E-5,-1.0633528569915619E-4,-0.02918979227121306,-0.02894364205440408,-0.44116984029894357
0.1501132808135431,-0.014555360113667625,-0.035693963222343916,-0.002078724705239705,-9.222088528844127E-4,-0.002237594874559726,-3.346353405020903E-4,-4.946308439682666E-5,-1.2871123394461202E-4,-0.028936317207794496,-0.028915463259460192,-0.44010706545660244
0.030071814069156166,-0.050403875549505275,-7.940911522211494E-4,-0.0017780065712697175,-0.0014262475971133213,-0.0022455357859044443,-3.52415405817372E-4,-6.372556004916869E-5,-1.511665913017401E-4,-0.02853276432816096,-0.028841569071107007,-0.4392196739102993
0.03306316652129697,-0.03537592930221953,0.04205384932893384,-0.0014473749134469413,-0.0017800068822283802,-0.0018249973020148737,-3.6688915462832795E-4,-8.152562847358995E-5,-1.6941656391397016E-4,-0.02833050179631521,-0.028236246479140747,-0.43876079659233685
-0.058614470400350255,-0.003142260810012623,0.03042041758687293,-0.0020335196043490887,-0.0018114294896261565,-0.0015207931329456375,-3.872243502172918E-4,-9.963992296496547E-5,-1.8462449490350277E-4,-0.028503151203022534,-0.02766068597351356,-0.4385241710434639
-0.0711684140008462,-0.008128588455619156,0.01691617647183112,-0.0027452037284501707,-0.001892715372365467,-0.0013516313720083864,-4.1467638688819265E-4,-1.1856707626556528E-4,-1.9814080832147347E-4,-0.028831965391665566,-0.02738555958228665,-0.43849252481988815
-0.12415063841173217,0.038590747436969344,-0.029366052232179793,-0.0039867100848176625,-0.0015068079066214777,-0.00164529188776636,-4.545434868452701E-4,-1.3363515499498224E-4,-2.1459372683138567E-4,-0.029156662663628596,-0.027662930465758937,-0.44038412292280654
-0.07989600743435425,0.038066349792918015,-0.02665992150262427,-0.004785670141303056,-0.00112614441720079,-0.001911891096833646,-5.0240018718862E-4,-1.4489659891527725E-4,-2.3371263737238118E-4,-0.02950316238538355,-0.02830497485933873,-0.4431071056213616
-0.05913071694515095,-0.01677565013956886,-0.019151101956972935,-0.00537697729753782,-0.0012939009148468285,-0.0021034021121227706,-5.561699589621502E-4,-1.5783560777453615E-4,-2.5474665802346187E-4,-0.029835783713043493,-0.028838007083573605,-0.442923706401212
0.009257891061756821,-0.04074975911929719,-0.012777284194066723,-0.0052843983889895516,-0.0017013984969315194,-0.0022311749512074924,-6.090139416708906E-4,-1.7484959236355914E-4,-2.7705840703683035E-4,-0.02996778880950629,-0.028754215762395504,-0.44185113103024154
0.013905890126259228,-0.04523997204627579,-0.03158708567185069,-0.005145339490835168,-0.0021537982072823555,-0.0025470458008657352,-6.604673354291693E-4,-1.963875739549713E-4,-3.025288644761786E-4,-0.02964729009143717,-0.02864963840189853,-0.44074058110384245
0.08866187659151781,-0.021311115705222945,0.0037690501942837257,-0.004258720744737464,-0.0023669093595711796,-0.0025093552997653462,-7.030545419246457E-4,-2.2005666702163763E-4,-3.276224169129475E-4,-0.029285835412570838,-0.028509678611245367,-0.4397523951291129
0.05390687822719309,-0.018914509497871348,-0.00441068818063881,-0.0037196519745146595,-0.002556054450322171,-0.0025534621805858686,-7.402510608383853E-4,-2.4561721095353665E-4,-3.531570381480629E-4,-0.028949043393608657,-0.028349658180135236,-0.44005560755094164
-0.010086175324987925,0.015770856368079726,-0.008489385138560247,-0.0038205137255101027,-0.0023983458901664346,-0.0026383560300739456,-7.784561972395349E-4,-2.696006693191289E-4,-3.795405978590838E-4,-0.028802972284450612,-0.028036611776191094,-0.4399742418602137
-0.034553741430201505,0.01604693199092278,0.025358518770758398,-0.0041660511320887545,-0.0022378765738439756,-0.002384770848034432,-8.201167076292374E-4,-2.919794345573643E-4,-4.0338830580639027E-4,-0.02890893289566677,-0.02765399028608103,-0.43875563280623553
-0.043922595353822654,-0.003928416367072699,0.014460618292996273,-0.004605277075809516,-0.002277160736636633,-0.0022401646683366696,-8.661694773579729E-4,-3.1475104141474554E-4,-4.2578995198904113E-4,-0.029112145909568607,-0.02751739360801515,-0.43907660807260906
-0.017773178356718145,0.021721494255990938,-0.01259262590179183,-0.004783008855404083,-0.002059945798931856,-0.002366090924539917,-9.139995648429279E-4,-3.3535049894363033E-4,-4.494508607055778E-4,-0.029331561338681488,-0.027809100807718465,-0.4408314569613247
-0.03203057861581243,-0.002638784066354919,-0.017116743434926668,-0.005103314634402814,-0.002086333639005591,-0.002537258355063293,-9.650327100462763E-4,-3.562138348673543E-4,-4.7482344368908924E-4,-0.029601058969822003,-0.028113895673473915,-0.44109770169501583
0.04643311776926158,0.006582339140065454,-0.016974938483586863,-0.00463898346708881,-0.002020510249076204,-0.0027070077361049673,-0.0010114225436802708,-3.764189369064971E-4,-5.018935204450755E-4,-0.029678071156628974,-0.028431491596571573,-0.44048199640471086
0.018939892973639988,-0.02243736186830438,-0.027309715448298424,-0.004449584541585806,-0.0022448838627441067,-0.0029801048844837544,-0.0010559183881015692,-3.9886777503216753E-4,-5.316945686238076E-4,-0.029608018552997915,-0.028586306590504672,-0.4408365292866234
0.011381372642838604,-0.037457678842142676,-0.03810563876498704,-0.0043357708177013555,-0.0026194606427930897,-0.0033611612636163506,-0.0010992760953094625,-4.2506238087460337E-4,-5.653061805086931E-4,-0.029319141815360213,-0.02844480008433333,-0.4401890571126012
-0.022347323039510602,-0.007610512208765907,-0.0033703278365966364,-0.004559244043101446,-0.0026955657631796666,-0.00339486454122899,-0.0011448685347214065,-4.5201803790389416E-4,-5.992548251621716E-4,-0.029032198906298077,-0.028344196023781937,-0.4422696712680092
0.003515818293556964,-0.002735003427588872,0.007859436232563688,-0.004524085860951723,-0.0027229157968442345,-0.003316270180660074,-0.0011901093923197118,-4.792471952637174E-4,-6.324175262275282E-4,-0.028892487635474463,-0.02832689695856621,-0.4434058370595625
-0.023842094683425904,0.02266043609938902,-0.003680320810538805,-0.0047625068024568585,-0.0024963114409153465,-0.0033530733879428465,-0.0012377344592797773,-5.042103091149018E-4,-6.659482593574863E-4,-0.028892309034702777,-0.028310090815825837,-0.4441093432837946
-0.03601374299117194,0.01407943667066008,0.01275009721985747,-0.0051226442243188786,-0.002355517077355745,-0.0032255724185941406,-0.0012889609003779658,-5.277654793619602E-4,-6.982039828224561E-4,-0.029074428192638786,-0.028340737627471357,-0.4448554417551731
-0.041810819881744773,-0.03224526646767419,0.024191051407649804,-0.0055407524137908795,-0.0026779697348251084,-0.002983661909924764,-0.00134436842327742,-5.545451761116384E-4,-7.280406012548033E-4,-0.029266448381144002,-0.028094562767625397,-0.4445159207760182
-0.001464652979590603,-0.028907523422832326,0.04051000768048839,-0.00555539894325941,-0.0029670449625920966,-0.0025785618421745723,-0.0013999224114682855,-5.842156250743731E-4,-7.538262191001955E-4,-0.029640620004776665,-0.02786210670797957,-0.44358977111730574
-0.009146633246937349,0.0020053739253546436,0.004885207832679709,-0.005646865273684352,-0.0029469912237867863,-0.0025297097649397042,-0.0014563910629429562,-6.136855366535371E-4,-7.791233161841583E-4,-0.030045583229400392,-0.027889545339967865,-0.4433065270424621
5.505411719524589E-4,0.003926188093722035,-0.01559713833202478,-0.005641359862087883,-0.0029077293437271374,-0.00268568114477372,-0.0015128046603028928,-6.427628294408804E-4,-8.05980127031599E-4,-0.030101752976898388,-0.027953929667165554,-0.4419189173612244
0.026361015242118552,0.013292427805920212,-0.01061020213351851,-0.005377749715558843,-0.0027748050686390246,-0.00279178316373734,-0.0015665821562564606,-6.705108795070534E-4,-8.338979580449602E-4,-0.030035648215917986,-0.028044067858211848,-0.44173008930331026
0.006440470745464914,-8.086167853283261E-4,-0.02882933694192627,-0.005313345009543752,-0.002782891236311568,-0.003080076526712744,-0.001619715605164273,-6.983397912481443E-4,-8.646987226236369E-4,-0.02980895560693274,-0.02796048274204855,-0.43994063314627624
-0.03284533589408939,0.001970192050509857,0.011936843460121234,-0.005641798361143141,-0.0027631893162468417,-0.002960708094779624,-0.001676133587514664,-7.259716837929918E-4,-8.943058029096633E-4,-0.029700897994870048,-0.027841850192633733,-0.43790789590593815
-0.004693281274588756,-0.01528883206094855,0.00981627666692017,-0.005688731172839999,-0.002916077633439007,-0.0028625453303045313,-0.0017330208979715335,-7.551324594755877E-4,-9.229312555728799E-4,-0.029626333950745466,-0.027915800516410304,-0.43765107437991185
-0.09048425950893017,0.03917878181392709,0.010719575242797551,-0.006593573747704493,-0.0025242898240568764,-0.0027553495802725677,-0.0017989566339748,-7.803753571519337E-4,-9.50484750759737E-4,-0.029618773034207114,-0.02822289640286296,-0.43676755387925303
-0.059436464075863865,0.016865465218418033,0.011414803458720979,-0.007187938375178047,-0.002355635175642421,-0.002641201548236765,-0.001870836016119951,-8.039317083818324E-4,-9.7689676565175E-4,-0.02969462755301335,-0.028533840042323257,-0.43624614627804903
-0.017974880459506053,-0.024424516643877146,0.03639304786712709,-0.007367687175755409,-0.0025998803366218876,-0.0022772710776999745,-0.0019445128862306987,-8.299305111669328E-4,-9.9966947591974E-4,-0.029867929586133237,-0.028780077031038544,-0.43486656145965386
-0.017969079540863873,-0.02448601494246093,0.036354686100430245,-0.007547377967147645,-0.002844740480573446,-0.0019137242248215775,-0.0020199866642152046,-8.583779153368182E-4,-0.001018806717740205,-0.029975883014783225,-0.02852957286878298,-0.43315061910786645
0.002020265116656756,-0.017200579329108102,-0.0021782795836901613,-0.007527175316432642,-0.003016746270019898,-0.0019355070201715957,-0.002095258415697076,-8.885453773627218E-4,-0.0010381617875093016,-0.030237620614097134,-0.028386709939337607,-0.43429078517794956
0.04494796829389779,-0.02101849725901702,-0.03188488183135839,-0.0070776956435403176,-0.0032269312379120682,-0.0022543558313583532,-0.002166035370550491,-9.208146890205672E-4,-0.0010607053453189972,-0.030117212341036936,-0.028175180745737813,-0.4370080418617589
0.04981935339530027,0.01671078512707329,-0.02304519014723787,-0.006579502120722808,-0.003059823390376487,-0.0024848077276797306,-0.002231830390287086,-9.514129222404083E-4,-0.0010855534220403967,-0.030153021928908032,-0.028224775762198836,-0.43789395981838364
0.01825366324919334,0.01671807144012566,-0.016824207384447554,-0.006396965492310886,-0.0028926426797120106,-0.002653049797763703,-0.0022958000437803615,-9.803393483909723E-4,-0.001112083919425031,-0.029948590190854735,-0.028266425334701237,-0.43852043388759027
-0.015723078592308044,0.01737820593549744,0.006818783011871392,-0.006554196274719584,-0.002718860624241368,-0.002584861969169106,-0.0023613420050625803,-0.0010075279540256734,-0.0011379325385389603,-0.02988186192224088,-0.027985593952840764,-0.4391168303016722
-0.03212287109967603,0.004979735948969543,-0.00721632043395014,-0.006875424978536323,-0.00266906326586473,-0.002657025171895634,-0.0024300962533111664,-0.0010342185860877386,-0.0011645027896640253,-0.02988573461568788,-0.027748813017584095,-0.43996625797427974
-0.01862022314469562,-0.005964340600651909,0.016573173352020756,-0.007061627205821335,-0.002728706670538115,-0.0024912934420798193,-0.0025007125237909832,-0.0010615056521832062,-0.0011894157235279761,-0.02986241999201272,-0.027943844703041006,-0.4405292514782508
-0.06949250245180491,-0.023288726044869503,0.03038339042507455,-0.0077565522148065995,-0.002961593925781374,-0.002187459544620291,-0.0025782780442053246,-0.0010911215907790522,-0.0012112903184852437,-0.029853406723966087,-0.028011794701626742,-0.44014528884621756
0.004338237955147409,0.028321454025278536,0.011593183650485612,-0.0077131698362247975,-0.002678379391858927,-0.002071527710706713,-0.0026554097408435446,-0.001117905384098977,-0.0012320055951292883,-0.030031405951012207,-0.02830797823833649,-0.439237353931872
-0.03891963521141552,-0.04430607349047459,0.025440741872075012,-0.008102366179639737,-0.003121440116860494,-0.001817120297672412,-0.002736433400828922,-0.0011491197845698857,-0.0012501767976998543,-0.029984801032032424,-0.028271660526623728,-0.43993255166574285
0.002562934088590035,-0.025178505903310232,0.012565276365993635,-0.008076736839326698,-0.0033732251702657617,-0.001691467536821034,-0.0028172007674168976,-0.0011828520355185689,-0.001267091472689992,-0.030191508283399955,-0.028009483646274393,-0.4401976922944911
0.0067403994198155185,-0.006079365932026034,-0.025276605169805847,-0.00800933284663514,-0.003434018828227178,-0.0019442335828693308,-0.0028972940940930236,-0.0012171922230332776,-0.0012865338080841153,-0.030093718557777194,-0.027877910000567493,-0.4391726932772967
-0.062198109742739226,2.0452191002953802E-4,-0.02358178879173956,-0.008631313930160171,-0.0034319736091725965,-0.0021800514655157858,-0.0029836072314653765,-0.0012515119583578977,-0.0013083343222519937,-0.030025792295142406,-0.028042714246127143,-0.4388929169579025
-0.06219553494992191,2.2098990457532255E-4,-0.023581203151878734,-0.009253269265757605,-0.0034297637101762383,-0.0024158634917637633,-0.0030761399220546855,-0.001285809594693048,-0.0013324929566296438,-0.029925578765855186,-0.028131152543980166,-0.4380117598442162
-0.047917452534788976,0.0037114796544429826,0.0019049914463887116,-0.00973244378039511,-0.003392648914461389,-0.002396813577725675,-0.003173464357683266,-0.0013197360830793459,-0.001356461091871171,-0.029731116086619575,-0.028216196973920044,-0.4375093234157133
-0.047918386884592476,0.0037035938427674732,0.001917588806891326,-0.010211627638530441,-0.0033556129768615318,-0.002377637690085376,-0.0032755806317860937,-0.0013532922120979233,-0.0013802374682405814,-0.02954117725183088,-0.028188849209585354,-0.43657087662960414
-0.005862243564264505,-0.0254421898789867,0.009528246837042098,-0.010270250072862773,-0.003610034869964626,-0.0022823552238446843,-0.0033782831302191416,-0.0013893925599906638,-0.0014030610199688822,-0.029519948973515904,-0.028385916616337416,-0.43498322326916716
-0.022428553522077985,2.074636058321672E-4,0.015386741405932327,-0.010494535603070381,-0.003607960233952676,-0.002128487813224566,-0.003483228483904134,-0.0014254721615237487,-0.0014243458976253738,-0.029449095281798832,-0.028545116787561175,-0.4348213109903924
0.011782329375678264,-0.026907018905281938,0.031807546688484206,-0.010376712311947154,-0.0038770304169913083,-0.0018104123534492646,-0.0035869956047042293,-0.001464242464827078,-0.0014424500207552077,-0.029581730325158012,-0.028499653902951456,-0.43611606972379746
0.019719732161610274,0.0010070629782784394,0.013481980672962928,-0.010179514994738754,-0.00386695978743362,-0.0016755925497330929,-0.003688790752376318,-0.0015029120618370814,-0.0014592059458780145,-0.029630193432622853,-0.028210197796222337,-0.4374926494094834
0.03019197245569218,-0.013316857778221785,0.03554718465215048,-0.009877595276930263,-0.004000128362239288,-0.001320120711157003,-0.003787566702937806,-0.001542913344565376,-0.0014724071526945146,-0.02987681589656012,-0.027924979677460885,-0.4360468450227355
-0.01454731613851459,-0.01123320002217522,0.021293542840620842,-0.01002306843506383,-0.004112460359950225,-0.0011071852875102722,-0.003887797385048114,-0.0015840379472456716,-0.001483479005322142,-0.030136649663907705,-0.027692042413937044,-0.43670151721054573
0.025406656203779843,0.014726061436789183,-0.018652925888729768,-0.009769001878704862,-0.003965199748873865,-0.0012937145422283161,-0.003985487401651621,-0.001623689943848119,-0.0014964161504552574,-0.03023732316133513,-0.0277112408264529,-0.4382739153001313
-0.027674856723174567,0.014145503268788221,-0.010427893477519939,-0.010045750439750796,-0.003823744719347749,-0.0013979934746726997,-0.004085944903803729,-0.001661927390186923,-0.0015103960848895084,-0.03025577801515694,-0.027702278573173655,-0.4399025319481768
0.012729633661382175,-0.01489451497896124,-0.03417727238069171,-0.009918454105982268,-0.0039726898658081775,-0.0017397661908404012,-0.004185129442646604,-0.0017016542879570394,-0.0015277937464090443,-0.029993758918533748,-0.027773790917217142,-0.4398421773174874
-0.04194920795980783,0.006612927835332566,-0.02221663324550043,-0.010337946176203969,-0.003906560588932956,-0.001961932518329601,-0.004288508902097933,-0.0017407198929731847,-0.0015474130711538143,-0.029771783591732603,-0.028111030467631318,-0.4376617324706694
-0.03147324834790771,-0.017771068788293955,-0.0017368665563834258,-0.010652678652648226,-0.004084271272843752,-0.0019793011835052155,-0.004395035686243356,-0.0017815626047887165,-0.0015672060825464582,-0.02961957441969458,-0.028166261671249426,-0.43579263790343586
-0.00803421735116846,-0.018482148535883307,0.01361073706260607,-0.010733020824364123,-0.0042690927540715035,-0.0018431938159213916,-0.00450236589208798,-0.001824253531375215,-0.0015856380202936861,-0.029465699020632834,-0.028210496751167508,-0.4376976222932071
0.01676033908166295,0.01407168481197168,-0.00589817173597234,-0.010565417437293721,-0.004128375909097053,-0.0019021755319627708,-0.004608020064099363,-0.0018655372895434216,-0.0016046597751881444,-0.029322134027304835,-0.02839904968026034,-0.437753973169452
0.019810451210162342,-0.016170252906755958,0.013522285121157012,-0.010367312929620079,-0.0042900784345502796,-0.001766952683773667,-0.004711693191078289,-0.0019084380729300172,-0.0016223293016309364,-0.02935086594650942,-0.028204492651691074,-0.43750266906723617
0.01010594171867846,-0.015273899766422103,0.015245665623577626,-0.010266253514692148,-0.004442817428800518,-0.0016144960309455625,-0.004814355723930524,-0.0019528662462249752,-0.001638474261579524,-0.02938101401557794,-0.02792527230973996,-0.4369414996826651
-0.007530351830054702,-0.011503466794087919,-0.02182516455200322,-0.01034155703130953,-0.004557852094170172,-0.0018327476715872904,-0.004917771291932101,-0.0019984447661479175,-0.001656801737885746,-0.02944818129069912,-0.02781773844764518,-0.4373824643740618
-0.006403280009846188,-0.040121239093205835,-0.008344361748137297,-0.010405589829976749,-0.004959064476134435,-0.001916191287203553,-0.005021827187906038,-0.0020480354098008245,-0.0016759636503294794,-0.029406550204097156,-0.02752368163893662,-0.4392915017937356
-0.012279100627055521,-0.031573991789544946,-0.04650888151844421,-0.010405589829976749,-0.004959064476134435,-0.001916191287203553,-0.005021827187906038,-0.0020480354098008245,-0.0016759636503294794,-0.02913702073857998,-0.027482436025912174,-0.44010669843537464
-0.029859431130148804,-0.029890508769942682,-0.010776433722055986,-0.010704184134604134,-0.005257969557152812,-0.0020239556220153923,-0.005128869026859508,-0.0021006151041971046,-0.001696203206097244,-0.02893093634736791,-0.02748324742006168,-0.44054382265102476
-0.029225268748779367,-0.032446444494287796,-0.027422785005751127,-0.010996436815559571,-0.005582433994843344,-0.0022981834659434337,-0.005238833392557208,-0.0021564394428977667,-0.0017191850402429943,-0.028680076456603344,-0.027323123173763002,-0.4425879026434481
-0.03196384852364245,-0.01951542475209365,0.004221155403958067,-0.011316075293651518,-0.005777588238002243,-0.002255971912847355,-0.005351994142964383,-0.0022142153239863975,-0.0017417447588672188,-0.028571361344082728,-0.027297813774738097,-0.44327421750574747
-0.03895080355879223,-0.024972427810796994,-0.014273637945456295,-0.011705583320533258,-0.006027312510528441,-0.002398708289111511,-0.005469049973553314,-0.0022744884477444724,-0.0017657318412221809,-0.028382057832809178,-0.027317312469930282,-0.4420981072503561
-0.00855868586685324,-0.021272852048548133,0.017099129360211844,-0.011791170177288776,-0.006240041026259069,-0.002227716999331346,-0.005586961672690669,-0.0023368888566123055,-0.0017880090107175609,-0.02848102395515161,-0.027182407401453657,-0.4408720747088977
-0.01076419917842522,-0.007893697791883337,0.010643545369994649,-0.011898812166667041,-0.006318978002413523,-0.002121281548010417,-0.005705949791697748,-0.002400078635224039,-0.0018092218257235216,-0.02865402404873651,-0.027244371512415568,-0.441518967044233
-0.05275501709942436,0.010473870378839971,-0.0051679996558754646,-0.01242636232586962,-0.006214239300966215,-0.0021729615434140336,-0.005830213412178936,-0.0024622210268447106,-0.0018309514406719672,-0.028994234907054172,-0.027351378150189808,-0.44125014466142887
-0.016101025114943178,0.0037747606580352,-0.016058046427834566,-0.012587372573420191,-0.006176491695229588,-0.002333542004103126,-0.00595608713509964,-0.002523985942416453,-0.001854286860191411,-0.02903528952464299,-0.02741913195679946,-0.441186132696038
-0.016098203481038555,0.0037725266988859916,-0.016062938453051526,-0.012748354604632348,-0.006138766429083954,-0.0024941713850432944,-0.006083570678296485,-0.002585373605335171,-0.0018792285734843533,-0.029168189531963592,-0.027567186799316256,-0.44140865512449745
-0.030782786540768027,-0.0200515159408753,-0.018300018851933955,-0.01305618246315954,-0.006339281584010844,-0.002677171569472261,-0.006214132500009796,-0.0026487664197583395,-0.0019060002885806814,-0.029084747314738396,-0.02763748743791814,-0.442233571631479
-0.007461566642342486,-0.02743562211195472,-0.005481224384922065,-0.013130798127915174,-0.006613637798998051,-0.0027319838120963323,-0.006345440478353986,-0.0027149027962700568,-0.0019333201260909988,-0.0290811829721,-0.027603621726913462,-0.44293388962527885
-0.004352065257991287,-0.009388229796867943,-0.018446261065072796,-0.013174318779522324,-0.006707520094868298,-0.0029164464186239997,-0.006477183663204519,-0.0027819779957194922,-0.0019624845896253624,-0.02892279021371354,-0.027712048076482344,-0.44435134894079603
-0.0015947454077272962,-0.0339904969072464,0.007023353373161056,-0.013190266233243144,-0.007047425056343294,-0.0028462128864622308,-0.006609086322588696,-0.002852452244707703,-0.0019909467178538067,-0.02878580470137935,-0.02760331749918262,-0.4438755868116324
0.029356634833661768,0.0182618245259377,-0.03514775104155175,-0.012896699891468246,-0.006864806815165753,-0.003197690389021614,-0.006738053318620742,-0.0029211003113249565,-0.0020229236210292834,-0.02862526007327914,-0.027535905141420566,-0.44370100059002776
-0.04046853107868822,-4.017047475650156E-4,-0.028275800076326303,-0.013301385193209706,-0.006868823862551615,-0.003480448383464743,-0.006871067167579748,-0.002989788548415171,-0.00205772810408599,-0.028659053862368455,-0.0276098442300236,-0.44381975166432397
-0.1201034391204852,-0.033882627986209723,-0.009419666387791433,-0.014502419557569347,-0.0072076501348403545,-0.003574645045237198,-0.007016091359913898,-0.0030618650481525392,-0.0020934745537393665,-0.028724327750052465,-0.02758768345037186,-0.4425918141236909
-0.008973253087663327,0.015271324341637147,0.003574465436751851,-0.014592152086440302,-0.00705493689483739,-0.003538900391668635,-0.0071620128775167005,-0.003132414415524012,-0.002128863556865047,-0.02882109333729889,-0.02767658862105616,-0.44215947009163614
-0.008971959796525389,0.015277744018018532,0.0035466194533433156,-0.014681871682400167,-0.006902159458072047,-0.003503434197927933,-0.007308831591059048,-0.0032014360085619795,-0.002163897898061248,-0.02889121858471858,-0.02786458252409579,-0.4438202386930574
-0.039745497229623936,0.008655499310914737,-0.007899289555911876,-0.015079326645812595,-0.006815604466897555,-0.003582427091721423,-0.007459624854146682,-0.003269592051707549,-0.0021997221681777273,-0.028983064194072827,-0.02786463331389018,-0.44402265363030446
0.044578706384995004,-0.01601142965409263,-0.003316009818137299,-0.014633539591926762,-0.006975718759859648,-0.00361558718916161,-0.007605960246795098,-0.0033393492377469507,-0.0022358780392611965,-0.02899679970130715,-0.0279181701287291,-0.4438642505750949
0.04457734186742848,-0.016013626008550302,-0.0033167041683529134,-0.01418776618321629,-0.007135855016365827,-0.003648754230103798,-0.007747837905456048,-0.003410707786315621,-0.0022723655807466744,-0.029038480300722615,-0.027763617755057132,-0.44415294866637395
0.03788770217289327,-0.026698296443249822,-0.021798371543615063,-0.013808889169955919,-0.007402837974830791,-0.003866737940667633,-0.007885926794069081,-0.0034847361644092657,-0.0023110329592890676,-0.02907217973598789,-0.02764516492698549,-0.44392646378560746
-0.037776710201385434,-0.00437576069766796,-0.03771176788347404,-0.014186656263526021,-0.007446595580829413,-0.004243855611073136,-0.008027793353533376,-0.003559202118553116,-0.002353471514451223,-0.028937302331120233,-0.027457782117179103,-0.4418084089811805
-0.005620712751113013,0.01953499165053461,-0.0444731055023001,-0.014242863389780824,-0.007251245668690477,-0.0046885866561556236,-0.008170221984247656,-0.0036317145736192414,-0.0024003573799647984,-0.028740004596317002,-0.027380214825951474,-0.44077465561609486
-0.050617135636820035,0.004123062571721601,0.016001042880760357,-0.014749034734835213,-0.007210015043894838,-0.0045285762309245315,-0.008317712328299342,-0.0037038147224466257,-0.002445643141261828,-0.028805214816328983,-0.027432995331688415,-0.4406940499409626
0.03130175624335909,0.026361904355054866,0.015931508937443634,-0.01443601717939811,-0.006946396006236634,-0.004369261145111065,-0.008462072496866622,-0.0037732786809563513,-0.002489335751736333,-0.02897131643628354,-0.027551117311160823,-0.4396110407409459
-0.029972015222175546,-0.028100175604002048,0.007148516537671223,-0.014735737324920598,-0.0072273977559957755,-0.00429777598133217,-0.008609429866822133,-0.00384555265690086,-0.002532313510589027,-0.029116157065889717,-0.027617605431738294,-0.43851573247244396
0.00304296137298546,-0.0430838979075176,1.3122539848012483E-5,-0.014705307711870898,-0.00765823672544095,-0.004297644755936623,-0.00875648294065395,-0.00392213502244352,-0.0025752899571877944,-0.029150596769349953,-0.027684045495663757,-0.43816798768672677
-0.014088356224987528,0.012061506498426428,-0.013028016986512072,-0.01484619127097178,-0.007537621663152643,-0.004427924922889755,-0.008904944850045286,-0.003997511237390257,-0.0026195692054269736,-0.02916002348379593,-0.027809766506049667,-0.43808280403008176
7.993591339904898E-4,0.012432040584948999,-0.033235804391003015,-0.014838197679810546,-0.0074133012600819306,-0.004760282959371004,-0.009053326823526796,-0.004071644248334075,-0.0026671720339566775,-0.02917896364686184,-0.027995240210504587,-0.4389201980178601
0.02725618171394665,0.03025266854929416,-0.01943021898023009,-0.01456563586876331,-0.007110774581350988,-0.004954585144830313,-0.009198983178958755,-0.004142751992558202,-0.0027167178842975445,-0.029364804434446574,-0.02811467362002117,-0.43818042968245574
-0.011099177110292489,-0.016177834022561618,0.013909083050692914,-0.014676627637385375,-0.007272552917960576,-0.004815494317432306,-0.009345749452052127,-0.004215477520112266,-0.002764872826395521,-0.029234291504279728,-0.028110106014869768,-0.43690383069556454
0.004531231437417639,-8.9642416079041E-4,-0.013886335869930022,-0.014631315324024008,-0.007281517159368114,-0.0049543576730277684,-0.009492062602022013,-0.0042882926900784015,-0.0028144164020184135,-0.02919781156317235,-0.028096362584923228,-0.4375816070702941
0.008355525340328492,-0.021089456418780825,-9.176181710566397E-4,-0.014547760072488328,-0.007492411718842061,-0.0049635338545332315,-0.009637540199495219,-0.004363216805592138,-0.0028640517394543097,-0.028984215490180428,-0.028121136708124862,-0.4386352789957437
-0.2216519843064295,0.029223510687428525,-0.013663598220843653,-0.016764279866009542,-0.00720017661849974,-0.005100169833687616,-0.009805182994408206,-0.00443521857016777,-0.002915053436651209,-0.029037602940998223,-0.02836569977123634,-0.44038139513149155
-0.16537452336085368,0.008286926528951612,-0.01625465316822834,-0.01841802506265399,-0.0071173073550624966,-0.005262716361736701,-0.009989363240917997,-0.004506391642127553,-0.0029676805990922674,-0.029011950198060306,-0.028345866730132275,-0.44181954607089846
-0.0940072258352585,0.005604028052742121,0.021322033383117684,-0.019358097299994322,-0.007061267075787673,-0.0050494960326713705,-0.010182944209591068,-0.004577004311307113,-0.0030181755582903307,-0.029133968137207752,-0.028089835877584037,-0.44321962924482816
-0.23332534819104853,0.03952212432258572,-0.01161446672476904,-0.021691350729752527,-0.006666045841395699,-0.005165640697323026,-0.010399857712040198,-0.004643664768231093,-0.0030698319641089505,-0.029049991881532927,-0.027756590221151838,-0.44445918156371783
0.04085338299819039,-0.018513387985792648,-0.019998323960824033,-0.021282816908902068,-0.006851179717115561,-0.005365623932461292,-0.010612685876372138,-0.00471217656387089,-0.003123488202234253,-0.02859731486566057,-0.026895860860771413,-0.44364023603786845
1.0169402139365276,-0.1605228630795932,0.010217456450389698,-0.011113414996840643,-0.008456408312031836,-0.005263449370241174,-0.010723820023856502,-0.004796740645101054,-0.003176122694760192,-0.02735694411095015,-0.025169190467481953,-0.44109652566323043
-0.3651635544175552,0.13277063052440605,-0.05044138475634148,-0.01476505045939578,-0.007128702036464324,-0.005767863206530061,-0.010871470525150214,-0.004868027663872308,-0.0032338013255362747,-0.02694566476362129,-0.024818345766305143,-0.43852996931038013
-0.141350114591249,-0.018198796711906953,0.01403620803128875,-0.016178551573714058,-0.007310689999515646,-0.005627501129354511,-0.011033256037271167,-0.0049411345622333985,-0.0032900763355719754,-0.02647781542883788,-0.02374053102854307,-0.4359985147027558
-0.1140198903007213,0.0961591003888861,-0.06675707685151022,-0.01731875045123584,-0.0063490990171200185,-0.006295071882948243,-0.011206443537912484,-0.005004625550985464,-0.0033530270529944,-0.026003423935526092,-0.023340988133783047,-0.43357968990355966
0.08686871781062079,0.35187031701810456,-0.9511655821271826,-0.016450063292546304,-0.0028303959255881177,-0.015806727491617996,-0.01137094416716107,-0.005032929509608703,-0.0035110943243775007,-0.021719256769058753,-0.026518842889231866,-0.432175238745238
0.13469400870171833,-0.4640048528022108,-0.3829886450167133,-0.015103123235635578,-0.007470444349897059,-0.019636613856180495,-0.011521975396141615,-0.005107633951437899,-0.0037074604585501806,-0.01758109953473413,-0.0254620243910943,-0.43236114656860236
0.1368589600333023,-0.7493166764485643,0.38286309712088745,-0.013734533665892917,-0.014963610946897372,-0.015807982970548192,-0.011659320729730636,-0.005257270057562245,-0.003865540284722303,-0.017189554331259897,-0.02080938226311814,-0.4338736736293004
0.1297738626102267,-0.41448932467229216,0.20486169538763752,-0.01243679506879737,-0.01910850410097471,-0.013759366062461975,-0.01178368867763877,-0.005448355094300909,-0.004003133942271465,-0.018414332704964943,-0.018033886037762386,-0.43563803058040473
-0.8647038492936399,0.09267790950410001,-0.44714734033559445,-0.021083833368457396,-0.018181725026648835,-0.0182308393658727,-0.011994527006610741,-0.005630172340503466,-0.004185442331855281,-0.017374067705757182,-0.018245321204395697,-0.4362161834211201
-0.0907788536072151,-0.39612029102414664,-0.509392606630358,-0.021991621884238893,-0.022142927848350518,-0.02332476531831816,-0.01221444322053762,-0.005851601614037641,-0.004418689979824971,-0.014190507168553232,-0.01748684618302214,-0.4370949698343538
1.590549710539954,-0.035052822813461934,0.291340163123284,-0.006086125134354917,-0.02249345606865022,-0.02041136375220492,-0.012275304470520814,-0.006076536169696464,-0.004622803612784725,-0.014712493863173042,-0.015570701190233566,-0.4365291748880423
-0.38188133931423107,0.03247029043669299,0.11311532989508963,-0.009904938442140097,-0.022168753171540965,-0.01928021047853727,-0.012374353852728288,-0.006298223696456771,-0.004815605713260634,-0.020012285801523633,-0.01070412387890717,-0.4379151267840113
0.16080829442120861,-0.16292796568456955,0.002425088604090318,-0.008296855533871467,-0.02379803279196942,-0.019255959593038417,-0.012457322406212511,-0.00653620401905719,-0.005008165304886976,-0.02457869843502511,-0.009509252839608129,-0.43914229004762745
0.1533274777409049,-0.37564551924206036,0.4351456620797432,-0.00676358079073378,-0.027554487900426708,-0.01490450306950362,-0.012524958212608071,-0.0068117488919025495,-0.005157210332250597,-0.02768251902090315,-0.010348003614103918,-0.44096215554934487
0.2227393857783753,-0.8677910050801836,0.6623233747868444,-0.004536186982736159,-0.03623239775726214,-0.008281269469675986,-0.012570320081421517,-0.007174072861376599,-0.0052400230250963485,-0.030977878032515206,-0.006956720957197397,-0.4425337189236812
0.2445542036243122,-1.2120717094290077,0.4571050197704621,-0.0020906450011551614,-0.04835311458063308,-0.0037102193741422995,-0.012591226530965772,-0.007657603996375166,-0.005277125218008473,-0.0353069257650601,0.0026870749547677417,-0.4464867714699461
0.11056748338445911,-0.7527214914519584,-0.05315757876634552,-9.849701920243287E-4,-0.0558803293269063,-0.00424179514992411,-0.012601076232665856,-0.008216407277154003,-0.005319543168559599,-0.041143956792256964,0.008150041080930717,-0.44782971482937506
0.16318191402879806,0.14440710137129886,0.11122822111973714,6.468489117896518E-4,-0.05443625834547081,-0.0031295129635881833,-0.012594607743692542,-0.00876076984844126,-0.00535083829749598,-0.04718636272216742,0.008429683293316614,-0.4520475567068712
0.3192647847577244,1.1395447237321632,0.20383953506505678,0.0038394966880056555,-0.04304081136285728,-0.001091117658499302,-0.01255621277767068,-0.009191177952449461,-0.005361749473837089,-0.05718499921546064,0.0034419954706343073,-0.45243436442716484
-0.04253500036918716,0.9808589935124382,0.2409761624199942,0.003414146693821097,-0.03323222164697197,0.0013186439118382707,-0.01252207131149559,-0.009523500161491201,-0.005348563035013447,-0.0707842222292805,-0.002884987909563857,-0.4522398161292966
0.27235987038183157,0.5096529581054138,-0.1092250824079312,0.006137745336762238,-0.028135692179834144,2.2639311217266707E-4,-0.012460693859499862,-0.009804857077000725,-0.005346299103942323,-0.08153368217732981,-0.010025478927845529,-0.45077600017036457
0.2578103146255748,-0.4719203452432918,0.08114180936265085,0.00871584842539289,-0.032854895526784646,0.0010378111876625678,-0.012373535377194078,-0.010133406024924931,-0.005335920992297666,-0.09061122592643804,-0.01493933006349634,-0.45068444389344264
0.1785555166519299,-1.0556740001500626,-0.25228011033237563,0.01050140355200192,-0.043411635292323746,-0.0014849898592721898,-0.012268521344021305,-0.010567522368144911,-0.005350770890558467,-0.09844348171490641,-0.018137342479033633,-0.4498659694133612
0.40876375208755245,-1.7610169669817157,-0.9777762639132734,0.014589040981511626,-0.061021804568522936,-0.011262752279854897,-0.012122630937467094,-0.011177740400190705,-0.0054633984108395945,-0.10251031510677726,-0.01598903726261855,-0.4505683251763576
0.11961225953622859,-2.0324564111531376,-0.7226246105620787,0.015785163550138488,-0.08134636822576491,-0.0184889982239565,-0.011964779305493969,-0.011991204064266025,-0.005648288388946546,-0.10242577487141488,-0.005703432764388247,-0.44924411121395796
0.5337428768638496,-0.9020739853132179,-0.12395649787358824,0.021122592199476153,-0.09036710787726784,-0.019728563174985943,-0.011753553388220475,-0.01289487512284008,-0.005845574016286728,-0.10320744960512641,0.008981061564249378,-0.44671168655410315
0.14185366583999623,0.1021148019066695,0.444381388132044,0.02254112882616935,-0.08934595988102559,-0.015284749392992484,-0.011528142104997117,-0.013788334701679958,-0.005998421506800245,-0.11110319020678953,0.020920899333064156,-0.44214753935198964
0.1484769957654845,0.8047441919076482,0.6812319895771678,0.024025898750637,-0.08129851814182346,-0.008472429649488022,-0.011287883122860954,-0.014601319864926557,-0.0060831458014013896,-0.12949938982103437,0.026910540040856412,-0.43910514658587746
0.39949354231761364,-0.9002658924846061,0.4889348240730663,0.028020834084519372,-0.09030117686544441,-0.0035830815180428084,-0.011007674788278906,-0.015504331613397116,-0.006118976615780937,-0.1515480674281261,0.03261880095881306,-0.43567574938941417
0.41290718815465377,0.0910971663514513,-0.6189860181431264,0.03214990587377396,-0.0893902052222917,-0.009772941561119915,-0.01068617573672723,-0.016398233645639766,-0.006216706029207713,-0.17621254500150033,0.03363799389464269,-0.43332833232120654
0.7524431486559228,1.089090324555319,-2.182747082889192,0.03967433719214904,-0.07849930222016917,-0.03160041190212984,-0.010289432373673645,-0.017183226650295497,-0.006532710141165769,-0.20381747284394794,0.02315007128297919,-0.4346422505689689
0.22349192554180175,-0.7018990502358329,-2.1587392630243953,0.04190925639761271,-0.08551829256564084,-0.05318780404985797,-0.009870339819064967,-0.018038409556837078,-0.007064588169775948,-0.22816027955463514,0.005302580845787993,-0.43742546038987645
-0.12282722856603726,-1.9760362336260173,-0.5005574429157216,0.040680984139406365,-0.1052786544602225,-0.05819337836713188,-0.009463529986763813,-0.019091196077907692,-0.007646521940440033,-0.2504496976071712,0.0015355837216334814,-0.4396437848163637
-0.22332642414091405,-1.894662970552479,0.1625383492870148,0.03844771994791457,-0.12422528374225711,-0.05656799491059188,-0.009079052795878402,-0.02033344888756375,-0.00821220187690202,-0.27211019472360637,0.009516076620709177,-0.44146176551083877
-0.2665741820829467,-1.7211747124308063,0.4421574606304759,0.035781978186669075,-0.14143703048185263,-0.05214642040311702,-0.008721233022009606,-0.021747819160768636,-0.008733666069277557,-0.2927391540095956,0.02542911263462712,-0.43956383977599267
-0.15713505165547054,-1.6080016900375105,0.19866513116517692,0.03421062770523679,-0.15751704702281136,-0.05015976913587036,-0.008379126752603909,-0.023322989595788945,-0.009235263749424679,-0.3161742442100028,0.03687919806281876,-0.4398226837859916
-0.010716783824229721,-1.4536196417580793,-0.3969648735007671,0.03410345986938988,-0.17205324311548284,-0.05412941778214947,-0.008038092161532727,-0.025043521988486875,-0.009776557915147307,-0.34105074055327755,0.04890368918517776,-0.43827745153936637
0.7431905149337495,-0.9900691448287161,-0.8000165290328657,0.041535364852611355,-0.1819539343424723,-0.062129582893660495,-0.007622738522290491,-0.026863061291241726,-0.010397853730196869,-0.3692799666489749,0.06711661629533527,-0.4311617336098396
2.314369101295661,-0.48384743958739823,-0.5501437027149374,0.06467905534826615,-0.18679240863019797,-0.06763101979784317,-0.0069759479832647246,-0.02873098533579235,-0.011074163913058589,-0.4036413510374837,0.08436510840292964,-0.424917928010911
3.3205675531215535,0.014923272047024946,-0.19786799127473692,0.097884730137277,-0.18664317591306334,-0.0696096996663636,-0.005997100703770897,-0.030597417053204984,-0.011770260894163245,-0.43846513079914734,0.08402533086122409,-0.4146196244365604
3.0013340683002605,0.7019016720397379,0.021405130284507305,0.12789807014942917,-0.17962415934955323,-0.06939564836830295,-0.004718120030864051,-0.032393658606551384,-0.012464217362335137,-0.4708396338361463,0.07105200881392205,-0.40313201317384995
2.336723713066323,0.7418680200323275,0.4595012112074535,0.15126530675779395,-0.17220547931505037,-0.06480063635893493,-0.003205466997096542,-0.03411571336121096,-0.013112223711440416,-0.5054735640667658,0.0518110186270264,-0.3919380897591739
1.185492203315909,0.24227625349743617,0.5442154476781235,0.16312022852597488,-0.16978271683422896,-0.05935848200379533,-0.0015742647482970057,-0.03581354049160386,-0.013705808518210716,-0.5448414964371414,0.03292679465706851,-0.379045028213661
-0.10004080068079085,-0.8084346037314665,0.37857293116256213,0.16211982054152782,-0.1778670626908444,-0.05557275277678735,4.69334208816688E-5,-0.03759221107875592,-0.01426153603355711,-0.5917682129578401,0.019398020555177163,-0.36442999046340396
-1.505182521604073,-0.5555662170760809,0.4819003702515732,0.1470679956619216,-0.1834227247374265,-0.05075374918198475,0.0015176133446286263,-0.03942643828513201,-0.01476907351403261,-0.6489637566198432,0.01367256712162158,-0.3517383226087001
-2.02703722071405,0.04576148128339182,0.23892460308208696,0.12679762390785923,-0.18296510993482107,-0.048364503204567685,0.002785589555365741,-0.04125608934358433,-0.015252718535267978,-0.7183617903691659,0.014061039327657435,-0.3361456842909449
-1.0238271046410052,0.8929126891503699,0.24083770928485612,0.11655935309029236,-0.1740359832428989,-0.045956126165550545,0.003951183060215619,-0.04299644913711324,-0.01571227978665149,-0.7956920575124105,0.010467047822567112,-0.3287874439026748
-0.02184899763764306,0.6143836896215205,0.36106261286622154,0.11634086311879956,-0.16789214648400916,-0.04234550011759211,0.005114591665399406,-0.04467537056442652,-0.016135734778362453,-0.8711913499235088,0.0052408446816051,-0.3245558714373514
-0.46079914164823155,0.764311667111614,-0.46696859414580927,0.11173287180531387,-0.16024902998373,-0.04701518595467459,0.006231920358478301,-0.04627786082844537,-0.016605886627400486,-0.9443952710206115,-5.245324472564709E-4,-0.32180053183107876
-0.1683685682471579,1.1968031313883765,-0.6878226144363329,0.1100491861604756,-0.14828099893735258,-0.053893411945297585,0.007332412195485147,-0.04776067078467551,-0.017144820734807345,-1.0166717439101218,-0.012751425520057407,-0.3192467156945584
0.3561631789699873,1.187086920073576,-0.5879213716667178,0.1136108178705668,-0.13641013000195143,-0.0597726255305541,0.008468520348796818,-0.049124772054204985,-0.017742546976752663,-1.0875493232619435,-0.034654765694858015,-0.320568081458951
1.633106631682726,0.6688384029599583,0.3533295772352372,0.1299418838223663,-0.1297217461218489,-0.05623932983717704,0.009767939157976207,-0.050421989486428405,-0.018304940262553963,-1.1506255921320145,-0.06629553593870424,-0.3178006646256724
2.667276549291959,-0.44841470408924333,1.1187580434151254,0.1566146487191031,-0.13420589306251282,-0.0450517496530877,0.011334085610161136,-0.05176404838705618,-0.01875545774901499,-1.1995863543235088,-0.10243472488731623,-0.3128192744957141
1.0627555147204577,-0.6825598083333297,0.08309844875627238,0.16724220362876333,-0.1410314909932821,-0.044220765184098926,0.013006507609067224,-0.053174363265466006,-0.019197665390971865,-1.2434371233087573,-0.12731337865340311,-0.3081861285735611
-1.1263688079293976,-0.5700001072827764,-1.2582627271686104,0.1559785158012324,-0.1467314919387049,-0.056803392174541396,0.014566292732215633,-0.05464167815205601,-0.01976569930002073,-1.2937096513352508,-0.1388174306668419,-0.3043655230817077
-0.3324712755145479,-1.1383621031248037,-0.6817892357681785,0.15265380312040003,-0.15811511271550918,-0.06362128437983142,0.01609283072929885,-0.05622282924386962,-0.02040191212959858,-1.3388665738388714,-0.14842485562946134,-0.30160725222057344
1.6616551285065202,-1.5885357332779244,0.9784659497050193,0.16927035403405638,-0.17400046969322303,-0.0538366251014854,0.01778553423180454,-0.05796283390190972,-0.02094027836858001,-1.3748433079767761,-0.15998243035392476,-0.2950948253196819
2.4798378217955728,-1.9666888800530202,1.4144094917733938,0.19406873169772515,-0.19366735805416402,-0.03969253049989662,0.01972622150540405,-0.05989950743916333,-0.021337203664707004,-1.4041295358881356,-0.1728577021870165,-0.28129318604017794
0.31211468360088246,-1.7148398447665258,-0.9558467609413984,0.1971898784639709,-0.2108157561185327,-0.0492509978956622,0.021698120245968386,-0.06200766495322766,-0.02182971363265517,-1.4372486315682604,-0.18069610665481883,-0.27463124579910264
-0.8891137547790758,-0.697389037459053,-2.718249193468802,0.18829874111491254,-0.21778964633724462,-0.07643348922277418,0.023581107615029462,-0.06418556136792032,-0.022594048507798694,-1.4850649673788636,-0.1853027488322495,-0.2777215101085167
-1.1527026786890158,0.39664287449341923,-2.810717874874225,0.1767717145856715,-0.21382321768096701,-0.10454066734327203,0.02534882472137462,-0.06632379349693678,-0.023639455157864753,-1.540175170489591,-0.19079740930021294,-0.28183285735053787
-0.7145286070139986,1.5418642030147618,-1.6837627616696473,0.1696264286752411,-0.19840457599545291,-0.1213782945836182,0.02704508897021257,-0.06830783921254442,-0.02485323807657077,-1.5936950609973735,-0.201338502815951,-0.2894739318976559
0.7225166947371021,1.0887585152545063,1.0199602406209058,0.17685159546111706,-0.18751699108626435,-0.11117869240538801,0.028813604885294327,-0.07018300908149375,-0.025965024975774277,-1.6419886753845143,-0.2107257368801386,-0.2938643338615033
1.244557948108019,-0.6692501998170033,3.1195797519405475,0.18929717466401688,-0.1942094929348453,-0.07998289558326295,0.03070657658962328,-0.07212510396743299,-0.026764853913729337,-1.6853613225428794,-0.21359927224714298,-0.296866848546047
-0.7922449187683447,-0.9414032460840523,0.2871547769641841,0.18137472565341398,-0.2036235251852658,-0.0771113478778052,0.03252032380561701,-0.07416133917377224,-0.02753596737527166,-1.7294778215019369,-0.20933587952220378,-0.3046857496882757
-0.8369321399032337,-0.9148656115945205,0.2589100816847602,0.17300540444145054,-0.2127721810967226,-0.07452224711882852,0.03425037781136179,-0.07628906093718117,-0.028281189829802923,-1.7676728766191736,-0.2054595729648725,-0.30780227960468776
-1.6953179011897455,-1.0973223478295009,-2.0623138156454286,0.15605222580848616,-0.22374540432974696,-0.09514538481431975,0.03581090003456626,-0.07852651493046765,-0.02923264365667947,-1.7979828070389077,-0.20598263526615193,-0.30653238345177003
-1.9530114923807258,-1.3002874993826574,-3.586930365212361,0.13652211132121098,-0.23674827903293663,-0.13101468766470195,0.0371761211172633,-0.08089399766787965,-0.030542790504042426,-1.8233962799410748,-0.21602067986536977,-0.30557771636309355
-2.254594786423049,-0.8106636802942853,-4.565471836068695,0.1139761639609217,-0.24485491565468204,-0.17666940500492642,0.03831588273139686,-0.08334254676969713,-0.032309484514603,-1.8528145026440166,-0.23195773286269025,-0.3050601167551964
-1.3969720896088507,0.32985702589416366,-4.090447051996998,0.10000644337708078,-0.2415563454694692,-0.21757387461061023,0.039315947142814486,-0.08575811017039978,-0.03448522321207755,-1.8964494437461306,-0.247045482021497,-0.31449740088550404
-0.9223488796873163,0.45056945289344325,-1.9810458242275828,0.09078295478636866,-0.23705065104124487,-0.2373843324100878,0.0402237766703866,-0.08812861662782727,-0.036859066483118895,-1.941027954436513,-0.2566760355915026,-0.3233452923092762
-0.7423228393185649,0.07887498219181059,0.5167160630351114,0.0833597265591051,-0.2362619012369567,-0.23221717189523172,0.041057373917345305,-0.09049123558738818,-0.03918123815016663,-1.9743528751630612,-0.2614976755544093,-0.33085211681019483
-0.6057037407373523,-0.6755610830690354,1.6042924846385846,0.07730268928711692,-0.2430175119166474,-0.21617424740743318,0.041830400792937976,-0.09292141065223601,-0.04134298057592225,-1.9997091277812264,-0.2651921703553692,-0.3347980385034472
-0.3934542078054211,-0.7323886856008639,1.1275613690527204,0.07336814729700658,-0.2503413986089544,-0.2048986339689356,0.042564082249508986,-0.0954248245823699,-0.04339196686981319,-2.0205519160965295,-0.2671419781421946,-0.3347791258508099
0.4633465377881629,-0.45181491298114046,0.651112451830548,0.07800161257132218,-0.2548595476377773,-0.19838750959616508,0.04334409835778749,-0.09797342000178212,-0.04537584192143178,-2.040613683605543,-0.26627451816685926,-0.3371041962158777
0.561159805042393,-0.4313724487746149,-0.20063435466701748,0.08361321049631712,-0.2591732720291042,-0.20039385309799,0.044180230444061656,-0.10056515266414343,-0.04737978040762016,-2.0522641302177935,-0.2678491051668729,-0.3315144086993226
0.11555072384611137,1.3780454839374552,-1.4538247692525041,0.08476871770895063,-0.2453928174977468,-0.21493210046555988,0.04502791760220388,-0.10301908078427133,-0.0495291013642347,-2.0651661672268076,-0.2676698289725156,-0.3260172332560813
0.4240488670272865,1.8668830045495581,-1.1665193840874455,0.08900920628444119,-0.22672398786953207,-0.22659729404569695,0.045918009645153184,-0.10528632061228989,-0.05179507425404323,-2.095606116861568,-0.26803088729925173,-0.33271096035599557
-0.5740188558512265,2.0501296288263453,-0.4561557048256511,0.08326901785423213,-0.2062226920395083,-0.2311588509919947,0.04675069980508343,-0.1073485474865906,-0.054106662712295146,-2.138012010414493,-0.27230603682192595,-0.3430378402000879
-2.013565490001156,1.3647009377921342,0.41401223485256916,0.06313336340428753,-0.1925756829666214,-0.22701872873600795,0.0473820334250149,-0.1092743042732128,-0.05637684994891259,-2.1848064859542133,-0.2692916549003287,-0.3596072430696501
-1.6133801384428452,-1.3618091417354437,1.6213224018548285,0.046999562380477644,-0.20619377407958778,-0.21080550507985346,0.04785202903831446,-0.11133624196792077,-0.05848490495259242,-2.2199118853945827,-0.26465068916798734,-0.36773537179050864
-1.9006947674754087,-2.3613589061363167,0.5496721195556724,0.027992615130561945,-0.2298073626131461,-0.20530878400715802,0.048131955183363245,-0.11363431554268628,-0.06053799274677391,-2.2348191869587835,-0.2665097046238459,-0.35306326526845183
-1.924657752808958,-1.1916255861817875,-0.939791444223993,0.008746038032666898,-0.2417236182086149,-0.2147066982393382,0.04821941556173502,-0.11605155167074299,-0.0626850596811766,-2.2561628056751184,-0.2678705267178827,-0.3468096597697843
-1.5531367562910237,0.10182507650558983,-1.6349020903296605,-0.0067853291830902215,-0.24070536746631868,-0.2310557187772057,0.048151562271420756,-0.11845860529160433,-0.06499561681730368,-2.2784446586580565,-0.27246202968279565,-0.3436896457915062
0.1379279147040414,1.4817271020938734,-1.125716337801684,-0.0054060500668790985,-0.22588809677657176,-0.24231288190360534,0.04809750177196031,-0.12071748620888012,-0.06741874558217859,-2.299390720345783,-0.2774495884113823,-0.34156270217383505
0.7223015969497725,2.583429429376076,-0.7100636382852559,0.0018169657411716382,-0.20005380306025247,-0.24941351812774631,0.0481156714289659,-0.12271802419476714,-0.06991288070770778,-2.3247334009135106,-0.27916728012482284,-0.34206949439283607
1.1091989966437952,2.205594513615497,0.20540175797163468,0.012908955459684294,-0.1779978584170863,-0.24735950059394085,0.04824476098067737,-0.12449800273915239,-0.07238647565835803,-2.353008412343055,-0.2865877320158688,-0.34326962746843515
0.9462996290134933,1.2596538651696347,0.8127651747714028,0.022371951538304777,-0.16540132004694452,-0.239231849027894,0.048468480491059895,-0.12615201590265177,-0.07477879409516448,-2.3876557663423155,-0.29387126760255333,-0.35262180748138183
0.7200917024150766,-0.1377872030922851,1.6643255236676449,0.029572868401502504,-0.16677919204706954,-0.2225885941632233,0.04876420916846487,-0.1278198077858444,-0.07700467998704429,-2.4305448169689097,-0.29209996701679053,-0.3733120537815501
-0.5367184551022973,-1.6550282745369873,1.4994603683824754,0.024205683970445452,-0.18332947442251177,-0.20759399081455404,0.04900626600275893,-0.12965310248909218,-0.07908061984878895,-2.4537662805577707,-0.2909331131950904,-0.3810517741035869
1.0605330978765521,-2.2738519954836978,1.8210773345842286,0.03481101471216336,-0.2060679938691032,-0.18938321787575427,0.0493543761420997,-0.13171378238172343,-0.08097445198521604,-2.464324999364429,-0.29453602342721097,-0.37515710035616107
1.9014285776772681,-1.7705427776187055,0.9576129794659645,0.05382530006393363,-0.2237734212495431,-0.1798070882951378,0.04989262913070814,-0.1339515165442016,-0.0827725228279774,-2.468463531043098,-0.30903262232795475,-0.36105690216440367
2.207962537636834,0.8615815591915309,-0.9148488650527657,0.07590492494678389,-0.2151576058502063,-0.1889555767411808,0.050651678363209905,-0.13610309255461217,-0.08466207855315434,-2.4815353564728175,-0.32585321392439714,-0.3517372050314528
2.4538010011705866,2.9194127287191356,-2.263383784366851,0.10044293441002249,-0.18596347921555453,-0.2115894140789436,0.051656107684859384,-0.13796272730520165,-0.08677797264664985,-2.510765978406955,-0.3368057126063349,-0.3488436928224264
2.36851630404546,3.316014602856989,-2.0918313976382628,0.12412809692107243,-0.15280333392817166,-0.23250772758776547,0.052897388626325315,-0.13949076061032917,-0.08910304987055798,-2.5521671133267416,-0.34031906004778506,-0.35439908411537724
2.0690918195857164,2.235764355958792,-1.5514125936631824,0.14481901465445154,-0.13044569086831603,-0.24802185317762956,0.05434557874050026,-0.14079521748985543,-0.09158326834689706,-2.600068331893968,-0.33934888133391,-0.3658493842497022
-0.6599770312150411,0.4078019558798896,-1.0384109250665867,0.13821924448981748,-0.12636767140066799,-0.2584059621961925,0.05572777115450402,-0.14205889417561673,-0.09416732791110076,-2.6527860211392262,-0.33872744976128666,-0.3812864119215761
-2.7680317889430253,-0.7859358701978257,-0.5774389367747079,0.11053892721909055,-0.13422702992697588,-0.2641803514348719,0.056833160401987555,-0.1434011644448844,-0.09680913136640057,-2.700394788362884,-0.3405034698916494,-0.3945622331317186
-2.317118270458711,-2.389981099371985,0.5669456587393858,0.08736774503241973,-0.15812684038649333,-0.25851089497420027,0.05770683783278354,-0.14498243281340523,-0.09939424025836088,-2.7352295395953523,-0.34526942546868483,-0.399998552453116
-0.17977133746360546,-2.549964122914767,1.6254643417496502,0.0855700316979657,-0.1836264810456796,-0.24225625192002337,0.058562538130636804,-0.14681869758281832,-0.10181680272341262,-2.755178564884917,-0.3526873883764733,-0.3929357203547926
1.59542554495166,-1.0108528462829445,1.4523242889600645,0.10152428679087691,-0.19373500928256585,-0.2277330093550425,0.059577780975853124,-0.14875604763234082,-0.10409413276606075,-2.7681021760900455,-0.36117356253262495,-0.38173145093560945
1.5961965351134637,-0.12126357870526297,0.6050366092429799,0.11748625178523382,-0.19494764504251394,-0.22168264339784893,0.06075264346744524,-0.15070552403919177,-0.10631095915048931,-2.782517624958996,-0.371585757814438,-0.36765367260796833
1.7191184419026857,1.0424256289093754,-0.5943740392973307,0.13467743582000777,-0.18452338898642048,-0.22762638365796928,0.06209941779554256,-0.15255075788781178,-0.10858722293619054,-2.805020711766908,-0.37906660722615143,-0.36234455074463034
0.38600750120257116,2.126916257969023,-1.9252514886706384,0.13853751074575407,-0.1632542268821331,-0.24687889811434843,0.06348479287203455,-0.15418330012014295,-0.11105601186215229,-2.5127404505298574,-0.376418946100646,-0.3626145754141403
-1.3164576196619198,0.4479615258474152,-1.8055237249111324,0.12537293484338607,-0.15877461172378615,-0.26493413495989376,0.06473852219244539,-0.15577104620189192,-0.11370535315253383,-2.138628750692308,-0.367078378391698,-0.36803729854308664
-0.6280602603222029,-1.3666892141318843,0.06163981774143416,0.11909233238054645,-0.17244150355962615,-0.264317736796257,0.06592944548963164,-0.1574954611989445,-0.11634853046141679,-2.0710552234656183,-0.35473816010128245,-0.376378880902156
0.15072568233811243,-2.6298001986340043,2.5567608959390893,0.12059958917023776,-0.19873950495816003,-0.23875012840834667,0.0671354413543779,-0.15948285620410435,-0.11873603169213544,-2.070756671926183,-0.34949080283357997,-0.378891432120399
-0.37128535928383194,-2.527884616264577,3.404551852483797,0.11688673566038818,-0.22401835055577957,-0.20470461064448534,0.06830430868485557,-0.16172303965959015,-0.12078307775282525,-2.0746747508737675,-0.34895331501369076,-0.36925113967242906
-1.904311132700169,-1.6977169891558002,2.6159745322065207,0.0978436247590332,-0.24099552006786826,-0.178544865907136,0.06928274491057615,-0.16413299480640214,-0.12256852637198873,-2.0779576828186554,-0.34190780519706304,-0.36121040455155573
-2.0584999507367123,-1.2219296092578098,0.7797579864582813,0.07725862571177668,-0.2532148158873238,-0.17074728621684268,0.07005533115042527,-0.16666514290867745,-0.12427599919599217,-2.088000025773724,-0.33812564071735385,-0.35043996228885455
-1.1409879035548178,0.21745480333239972,-1.3752073212330027,0.06584874693125917,-0.25104026790260475,-0.1844993591217899,0.07071381860501952,-0.16917554553159164,-0.12612099274597124,-2.104372289384858,-0.3404245656458155,-0.3469727028961261
-0.9422924784226689,2.3730948913084626,-2.9668999349099066,0.056425822357651256,-0.22730931951994818,-0.21416835780773516,0.07127807681598387,-0.17144863867598353,-0.12826267627617824,-2.1272318050325594,-0.33889221254808033,-0.3439134954655889
-1.9661321225595285,2.8364511435436435,-4.064711017908111,0.036764501571520745,-0.19894480871850798,-0.25481546707828256,0.07164572182348157,-0.17343808671870098,-0.13081083089000536,-1.8302572302528546,-0.32903947155413676,-0.34496958451520654
-2.5430091171787055,1.0771633892821515,-4.590222050816568,0.011334410968140522,-0.18817317506645123,-0.30071768656045367,0.07175906593062954,-0.1753198184273055,-0.13381800768839425,-1.4628819341974981,-0.3143054992008316,-0.3548883208639191
-1.137374546462958,0.38404902138029784,-2.4671862240631834,-3.9334242266037336E-5,-0.1843326849384899,-0.3253895482496264,0.07175867258821568,-0.17716314523548884,-0.13707190309816028,-1.078193705007695,-0.30683407298800236,-0.36954399013087513
-0.20951329163662005,0.674013515553471,-0.6796441569855022,-0.002134467111802368,-0.17759254993360896,-0.3321859896675691,0.07173732791757474,-0.1789390706951299,-0.1403937629205866,-0.6785493822863207,-0.3146217060363393,-0.37458566306800234
-0.5717315171701531,0.264349603990571,-0.33186574961734794,-0.007851782155711947,-0.17494905395278998,-0.33550464708956484,0.07165881009777263,-0.18068856119555365,-0.14374880931649112,-0.25932758636389897,-0.3233039865874381,-0.37295848448166613
-0.7118833606768721,-0.7456888245450102,-0.47493926868302383,-0.014970615603362337,-0.18240594203156563,-0.3402540396702379,0.0715091039450852,-0.1825126205750984,-0.1471513496371408,-0.1535553861618647,-0.32527838425306543,-0.3628238286161751
0.1578902687623133,-0.8251900549379119,-0.3693186079667844,-0.01339171295103043,-0.19065784239650038,-0.3439472256673566,0.07137518681856818,-0.18441919895644807,-0.15059082181693617,-0.1287412923112391,-0.32857120352478997,-0.3544620868968348
0.7558933629377794,1.1220830636535835,0.10943237663251942,-0.005832779490607968,-0.17943701201076967,-0.34285290192549145,0.07131685902496583,-0.18621356903644848,-0.1540193507595575,-0.11900587282082553,-0.3425644751471493,-0.3421332267980083
1.0426209251230913,2.134481678666986,1.2549931592639088,0.004593429527579009,-0.15809219570119365,-0.33030297061336517,0.07136279331921491,-0.18779449095812406,-0.1573223803918627,-0.42940062028025583,-0.36128203256076474,-0.32524759887293364
1.2403936457657658,2.753416259324385,1.9657329171470916,0.016997365707987083,-0.13055803372338629,-0.3106456418812698,0.07153276697249558,-0.18910007126617592,-0.16042883674124067,-0.8212445825908073,-0.3772656465952749,-0.3067856625893275
2.1090879721719884,3.5301677228796096,2.5953080767785175,0.038088244958289066,-0.09525635728364416,-0.2846925616935812,0.07191364941356508,-0.19005263481772092,-0.16327576229454274,-1.2344234748172969,-0.389481309029866,-0.28541701764733896
2.7176336387686764,3.9728979852984088,2.0105111542978373,0.06526458073853737,-0.05552737831867197,-0.2645874505999871,0.07256629520636268,-0.1906079085884963,-0.1659216367414027,-1.654537127670467,-0.3990641801840036,-0.2684628486504529
2.571408719049434,3.4291409690143135,0.6728765289989863,0.09097866735427708,-0.021235969395001573,-0.25785868546039686,0.07347608185957014,-0.1908202682776997,-0.16850022353837077,-2.077322615483398,-0.4066131116613989,-0.2546416244995068
1.2217317841551425,2.857911517540521,0.10078380774081104,0.10319598492275017,0.007343145141610635,-0.25685084740551567,0.07450804168573154,-0.19074683682792493,-0.1710687319550153,-2.171428615197816,-0.40984522156799535,-0.24290860923846672
1.6484640644075237,0.7189353615556758,2.0138178083911886,0.11968062519836498,0.014532498596472817,-0.23671266977172714,0.07570484791096449,-0.19060151184520846,-0.17343585859982316,-2.5054894605667863,-0.4021844566390258,-0.23590220657204275
1.8830564308722757,-0.9546158306580064,4.474622689962052,0.1385111890861918,0.004986340503266018,-0.19196644387226272,0.07708995977086675,-0.19055164844129033,-0.17535552299563795,-2.5696916122664186,-0.390972410811534,-0.23023903041122873
2.971046232221108,-1.4298515984910294,6.49931695335258,0.1682216507443223,-0.00931217516204754,-0.12697327579144746,0.0787721762407095,-0.19064477019082937,-0.17662525572517168,-2.551299847069104,-0.38349347631999414,-0.21886177572574375
3.9693280916466316,-0.7280495023063466,7.18556252396516,0.20791493077357465,-0.016592670022379262,-0.05511765215789424,0.08085132550197263,-0.19081069688734442,-0.17717643223443086,-2.50457654360326,-0.37821919042866986,-0.20965040350697844
2.877316414692355,1.8816376413473483,4.734093710816696,0.23668809427736787,0.002223705970515435,-0.007776716107879687,0.0832182063918424,-0.1907884598281363,-0.17725419939377143,-2.44903517390187,-0.3730335700537196,-0.19903604838324285
1.073248647283011,3.2949900902515235,1.183374725797437,0.2474205805103082,0.035173606136542995,0.00405703088558982,0.08569241214164267,-0.19043672377463278,-0.17721362908582236,-2.3949980460886255,-0.3648174243665213,-0.1954171685194124
1.3729002781877002,3.2644592571285806,-0.6372004183575842,0.2611495829853181,0.0678181979781653,-0.00231497315556063,0.08830390791312437,-0.18975854181000967,-0.17723677881686054,-2.6730956674736235,-0.35546864698297176,-0.19392894573763186
0.4812893209035682,2.331328012558552,-0.5477199820501149,0.26596247608677726,0.0911314775826584,-0.007792172853636823,0.0909635326145449,-0.18884722705455256,-0.17731470054365522,-2.7131280732567538,-0.3465776106771714,-0.20023344196773302
2.1551144137841365,1.2201348779909165,1.5735347986685904,0.287513619742913,0.10333282608984616,0.007943174781336647,0.09383866874770973,-0.18781389881675079,-0.1772352687976173,-2.6897287808831822,-0.33546241140948524,-0.20839381691689363
4.879948491247976,-1.4375596313330097,4.840826132867008,0.3363131035646393,0.08895723009783568,0.05635143502799777,0.09720179970818428,-0.1869243265356559,-0.17667175445993286,-2.647628303756744,-0.329230706716245,-0.22113127696480514
7.733613009178103,-3.366411937503374,7.356259514218518,0.4136492319278231,0.05529311147525365,0.1299140285259308,0.10133829193500471,-0.18637139543326234,-0.17537261420371159,-2.5949851290328017,-0.3322456984580422,-0.2321303503480605
10.65002123777492,-2.480888328931353,8.839992495819502,0.520149441925107,0.03048422874046187,0.21831395150823352,0.10653978623799332,-0.18606655315267148,-0.1731894747374262,-2.531584609476752,-0.34583710225030717,-0.23724222589872263
9.778037115895515,2.9734667621869666,8.44506384224416,0.6179298108985005,0.060218895697709926,0.3027645880430563,0.11271908420886025,-0.18546436420915435,-0.1701618289246688,-2.4539665320847774,-0.36468365683719794,-0.24125034721461838
7.230594835067214,6.669208093513952,5.675097264451355,0.6902357576330087,0.12691097514216526,0.35951555941908675,0.11962144163091062,-0.18419525448609952,-0.16656667341083592,-2.3678358515999127,-0.37719123126661924,-0.2548740636447608
4.245754620120247,7.721200211860413,1.4024966306769788,0.7326933028852111,0.20412297553494665,0.3735405254123741,0.12694837449599303,-0.1821540247763751,-0.162831268240205,-2.2848566605951826,-0.3821394020756994,-0.26998853137090295
0.7978808517714782,6.094089846856238,-2.452238651219346,0.7406721112245855,0.2650638726413738,0.3490181394482987,0.13435509544268576,-0.17950338610920774,-0.15934108692373364,-2.2184803426214814,-0.379621846759573,-0.291272481455518
-0.20801009727762937,3.366147530870495,-3.9783724592436958,0.7385920102983031,0.2987253471976862,0.30923441574509725,0.14174101538058062,-0.1765161327040012,-0.15624874283540194,-2.1719254343374157,-0.36621072373783514,-0.3183146623353095
-0.5932924020044411,1.5419332387771685,-3.9833064137233345,0.7326590864108699,0.3141446792408089,0.2694013524982023,0.14906760608092726,-0.17337468598180994,-0.1535547293706358,-2.1350103330993893,-0.3486177193586196,-0.3511299798945196
-0.18052976193829806,1.2748494858519441,-3.358474717967609,0.7308537888318384,0.32689317381437727,0.2358166060692038,0.1563761438058871,-0.17010575431673247,-0.15119656336265289,-2.0955006250660917,-0.33028842932711755,-0.3848760062580864
0.13684561693953828,1.2711576033370309,-2.7757708525943636,0.7322222449706464,0.3396047495636217,0.2080588981636933,0.16369836609192914,-0.16670970689700382,-0.14911597442752075,-2.049607643347983,-0.3193993263754298,-0.4079788502150278
-0.618743295863353,2.0142942016129464,-2.3673526616107115,0.7260348121503127,0.3597476911295213,0.18438537207673075,0.17095871405115085,-0.16311223006611847,-0.14727212074796678,-1.9904142575961679,-0.31621389374415737,-0.41549604610238156
-5.856848465399643,0.6254674197307668,-4.865955608268855,0.667466328805424,0.3660023651870261,0.13572581708166803,0.17763337719001474,-0.1594522064960561,-0.14591486260748718,-1.9051550166016376,-0.30246042564476905,-0.421481628857653
-5.3343988665163335,-3.362401275664968,-4.659036985590292,0.6141223413325917,0.3323783531819317,0.08913544826714104,0.1837746004660736,-0.15612842303852914,-0.1450235081447391,-1.7813057711407512,-0.2987268054131451,-0.4023682895814882
-1.9000628677852582,-5.090454406322188,-1.5367163751673585,0.5951217130794363,0.2814738102565151,0.07376828485895033,0.1897258174638479,-0.1533136849988783,-0.1442858253126381,-1.6368953036476686,-0.3053861529269101,-0.361842846717732
-0.8031870874386252,-3.6340704014017944,0.711681342496225,0.5870898423845763,0.24513310705477517,0.0808850981248394,0.19559671575646886,-0.15086235398312206,-0.14347697434946893,-1.4999713529532321,-0.30427732281827213,-0.331096737743836
-0.01809426891196937,-1.147741519641191,2.156667180978088,0.586908899699501,0.23365569211490347,0.1024517694525676,0.2014658046222795,-0.14852579711419914,-0.142452456677843,-1.3820656161634006,-0.29709266802016454,-0.31158054229652243
0.6993429652078814,2.178056727841025,2.396031169556789,0.5939023291952644,0.2554362589064801,0.1264120806125808,0.20740482778148464,-0.14597143458222878,-0.1411883358999725,-1.284112330051283,-0.29173966810366114,-0.30239840801976237
0.8673236604922439,4.37271197943512,0.8856035930161142,0.602575565606325,0.299163377723454,0.1352681163447941,0.21343058330286174,-0.14297980087186246,-0.13983565476675935,-1.2047297366594607,-0.2997778396250559,-0.29993944062182526
0.4628032115730638,6.496528148233767,-0.6276783674183974,0.607203597618611,0.3641286577537045,0.1289913328109072,0.21950261914332728,-0.1393385143757145,-0.13854574146748208,-1.154653736036284,-0.3341955972781354,-0.29699494231348733
-0.10525902179961952,6.585415784093931,-1.1698615834605022,0.607203597618611,0.3641286577537045,0.1289913328109072,0.21950261914332728,-0.1393385143757145,-0.13854574146748208,-1.142687240668758,-0.3659221135869327,-0.3172903668417943
-0.8465194376787806,5.710786695323774,-1.6424942564122202,0.598738403431035,0.42123652343048196,0.11256639061391106,0.22549000304380917,-0.1351261492355634,-0.13742007758650351,-1.1461749548330713,-0.38432158549132317,-0.3589293222544531
-2.4921993474491724,3.434985689105596,-2.945057843757101,0.5738164105135932,0.4555863795537588,0.08311581283461178,0.23122816702068713,-0.13057028554185732,-0.13658891947673524,-1.1384208806038871,-0.394014954813037,-0.38904902216449216
-4.116046341047081,-0.008805143869147807,-4.538935456129476,0.5326559480231304,0.45549832811703544,0.03772645928784815,0.23655472638186056,-0.12601530236249878,-0.13621165489228929,-1.098082070140101,-0.3883432305342631,-0.4113834531295442
-2.7519756517373923,-2.835916632035739,-4.390552437271773,0.505136192120871,0.42713916243055483,-0.006179064103504633,0.24160608819016255,-0.12174391083366627,-0.1362734455319432,-1.0105928858324216,-0.3757162600120359,-0.41541188806845075
-0.5019869353981248,-3.446270078559295,-3.018653030475459,0.5001163228790926,0.39267646241526327,-0.03636559373353769,0.24660725130716876,-0.11781714629728367,-0.13663710146115024,-0.8974129527965994,-0.3590954623055175,-0.3973258419411823
0.7086973856977591,-3.1449642966344094,-1.6815650629272065,0.5072032965776639,0.36122682015187346,-0.05318124398695068,0.25167928415957663,-0.11420487817650542,-0.1371689138891328,-0.7709731660839163,-0.336816105030431,-0.37606697623529783
1.1170683178129952,-2.1476274267543904,-0.26309785158936466,0.5183739795061096,0.3397505463643617,-0.05581222244403737,0.25686302383877213,-0.11080737278880197,-0.13772703610109815,-0.6416381051014894,-0.31418459989582254,-0.3573193211596607
0.5963939034594948,-0.42033569562862555,0.27583082145682386,0.5243379184074002,0.3355471895020278,-0.05305391429112213,0.26210640290564746,-0.10745190096878234,-0.1382575752321509,-0.5211143098647099,-0.29785023678106715,-0.3446724507193047
-0.37377506857965365,1.4332386550941643,0.42047126775399774,0.5206001678051488,0.34987957573261563,-0.0488492017075648,0.26731240446733573,-0.10395310528966036,-0.1387460672383079,-0.41910553284380003,-0.29620667951950175,-0.3409273334584898
-1.1701007673053665,2.9077138444257136,0.5489189520545659,0.508899160393633,0.3789567135269481,-0.043360012309712086,0.2724013959575242,-0.1001635382390943,-0.1391796673517133,-0.3489066347258059,-0.3162200644151876,-0.34165174485413985
-1.0668640359371657,3.4298365169438902,0.9717321588744423,0.4982305202727241,0.4132550779297588,-0.03364269093816673,0.27738370104888826,-0.09603098755216642,-0.13951609425357525,-0.3163592268592659,-0.34106647755842345,-0.34987656439745973
-0.3066262743561053,2.614193546277437,1.7659449596143033,0.49516425759769933,0.43939701280821536,-0.01598324173674315,0.28233534351418743,-0.09163701752229715,-0.13967592666737014,-0.29747119966051905,-0.3574618482802002,-0.3742475180780265
1.1715457833251932,1.277945142093555,2.246754883812785,0.5068797151690904,0.4521764639435079,0.006484306599195848,0.2874041405525819,-0.08711525298393138,-0.13961108360282753,-0.27402070931467054,-0.3665960680484975,-0.39448180075830785
1.5637300216748307,-0.4170466093193956,2.1690858532516137,0.5225170150363178,0.44800599794353113,0.028175164646883515,0.29262931058615343,-0.08263519310463321,-0.13932933196265634,-0.23861629968121933,-0.3684263586964197,-0.4120398949520542
1.6857289572030727,-1.2667209321941908,2.0386685618488287,0.5393743042315587,0.43533878890472344,0.04856184980969387,0.2980230535079095,-0.07828180531289178,-0.13884371347541383,-0.1909033221803113,-0.3632115267844722,-0.4242879063600917
1.7298537315763458,-1.3873732060017123,1.8719196873016362,0.5566728411606697,0.4214650571548084,0.06728104626430358,0.3035897817950901,-0.07406715483554847,-0.13817090302780927,-0.13158907140530793,-0.351105325858858,-0.43148837979324106
0.3919675001543175,-0.8814803538705756,1.5225370558002718,0.5605925160746014,0.41265025381312886,0.08250641648199274,0.30919570683053393,-0.0699406523896517,-0.13734583888143095,-0.06377147235333554,-0.3332160177587448,-0.4358927352065305
-1.1795471562366024,0.6404346586713486,1.5951472228045906,0.5487970447758846,0.41905460025669405,0.09845788835349545,0.31468367715562706,-0.06575010648075076,-0.13636126001990306,0.00314603199766976,-0.31914672117230697,-0.44250532946020393
-2.022286705395095,1.747503727287697,1.4310274773155396,0.52857417817395,0.4365296371389735,0.11276816280679128,0.31996941881922103,-0.061384810206933,-0.1352335784170408,0.06600753700814825,-0.31858361045716405,-0.44754506466998933
-2.3514872495599697,2.078475454561473,1.5635121892485802,0.5050593062039487,0.4573143912200128,0.12840328434980486,0.325020011768371,-0.05681166639695061,-0.13394954560224315,0.1217515703721365,-0.3288940094515673,-0.45646012324256924
-2.0649301054549825,2.582760816474952,2.4026676511818064,0.4844100056109467,0.4831419988074703,0.15242996032458486,0.3298641117162064,-0.05198024651686656,-0.13242524603306804,0.16721323923876819,-0.3481886357841941,-0.4619242327150669
-1.9350022758606062,1.5321112138792021,2.297578973765333,0.4650599832848474,0.49846311060380877,0.17540574954868926,0.33451471144510586,-0.046995615522243656,-0.1306711885767874,0.21026709200598487,-0.37155303848514404,-0.4667498379306668
-1.6831579058134953,0.7820464618150852,2.0807914373699066,0.4482284046029275,0.5062835750471586,0.19621366345729518,0.3389969953909483,-0.04193277988493527,-0.1287090519860716,0.2548227320988367,-0.3922784713494678,-0.46802339653581515
-3.0123791585725375,-0.7101925405102483,2.7592707435754775,0.4181046136905213,0.4991816498007965,0.2238063702763049,0.34317804143439984,-0.03694096349850309,-0.12647098833333317,0.30088710031606347,-0.4096288535850255,-0.46742675261804145
-3.053425284542751,-0.8272238775874998,2.86226861950644,0.38757036152758756,0.49090941120982046,0.2524290558316024,0.347053744963047,-0.032031869496131696,-0.12394669783143944,0.3520161158672149,-0.414153994498258,-0.46675759760969576
-3.193026089346808,-0.6140815415567719,3.284549291521928,0.35564010134781643,0.48476859593151067,0.2852745480126677,0.3506101458970334,-0.027184183645170813,-0.12109395241507659,0.4043751455243467,-0.40838184654676746,-0.46750962993188966
-3.5988165143416944,0.7800765716659235,4.257990700775522,0.3196519370087977,0.4925693614738092,0.32785445406868785,0.35380666519567355,-0.02225849014053055,-0.1178154079476709,0.44925466314135964,-0.4027062301444798,-0.46648560066992967
-4.082708914993392,1.3261190823858369,4.602440843395651,0.27882484877142033,0.5058305520012568,0.3738788614739187,0.35659491362106555,-0.017200184733579923,-0.11407661941650014,0.4899504670874184,-0.4043943356312489,-0.46674284724693427
-4.454938537947803,0.5134130410773081,4.8869056686014805,0.23427546438769867,0.5109646822972731,0.42274791706762493,0.3589376682125779,-0.012090538024816699,-0.10984914034031541,0.5267864573067241,-0.40913782400093446,-0.4628363450762938
-4.696114208960958,-0.07835033496870704,4.5722170218156775,0.18731432334775241,0.5101811789650987,0.4684700862638116,0.3608108114041874,-0.006988726349200091,-0.10516443958238852,0.5645683454817726,-0.41630979275660135,-0.4595370441044439
-4.825705443308841,-0.2518160021149847,4.578411867648965,0.1390572699932932,0.5076630190002341,0.5142542039169464,0.36220138407303865,-0.0019120962726692772,-0.10002189765816383,0.6080814600144362,-0.4262424794541927,-0.4529036499588838
-4.668837883601108,-0.45702116306709695,4.92176412678757,0.09236889220084872,0.5030928074717154,0.5634718440847222,0.36312507297440105,0.003118831689597871,-0.09438717934326238,0.6512270062565954,-0.44338583720457136,-0.4424703565132771
-4.738591957912335,-0.7565202401450682,4.95466833084456,0.04498297368088321,0.4955276052393601,0.6130185262857131,0.3635749027011554,0.008074107631232421,-0.08825699421742557,0.6912675608891836,-0.46171911187363546,-0.43102676236274795
-4.9792419623455,-1.1056610014116617,4.966235953636746,-0.004809444829624483,0.484470995472378,0.6626808847120403,0.36352680825393413,0.012918817477668494,-0.08163018551842588,0.7426718613798727,-0.47308663122920247,-0.41458131538485343
-6.052085705862859,-1.590144822960833,5.040647084698297,-0.06533030053550651,0.4685695475981947,0.7130873544323509,0.3628735052631815,0.017604512848916985,-0.07449931213348981,0.8059082239732802,-0.48057708340119354,-0.39061983269557665
-6.393847309782067,-2.917622779594923,5.305234203576021,-0.12926877220419092,0.43939332045438495,0.7661396952822989,0.3615808175700334,0.021998445955248774,-0.06683791535191239,0.8774721527973606,-0.4911914348376685,-0.36279374663974584
-5.520135793330375,-3.384889103105278,4.739767334213489,-0.18447012890364817,0.4055444301799138,0.8135373675650132,0.35973611632222924,0.02605389016640167,-0.058702541858102024,0.9530398479543483,-0.5018616866009477,-0.32628096432989107
-4.235499078171359,-3.511938520719045,3.280255194169649,-0.22682511873865394,0.3704250457577028,0.8463399187735154,0.3574678651855421,0.029758140541182247,-0.05023914285953858,1.019222883584204,-0.5114774137221949,-0.2902231299558946
-2.554171748589563,-3.4834688075679794,1.6954308275485341,-0.2523668356536477,0.33559035846063895,0.8632942266700425,0.354944196885414,0.03311404405077835,-0.04160620078579945,1.0889612651066778,-0.5120427942558546,-0.25182519822794047
-1.1801433776091153,-2.555080013262733,0.47070359779973087,-0.26416826916595626,0.3100395588991165,0.8680012625428294,0.3523025142528007,0.03621443957047027,-0.03292618835438456,1.1599179640453656,-0.5056816188927407,-0.2136629256406359
-0.6294314022758417,-1.896873506082882,0.4993882020221221,-0.2704625830480258,0.29107082426227193,0.8729951444514287,0.3495978884827735,0.03912514774803359,-0.024196237104999893,1.2216784326849692,-0.4980423660177514,-0.17646123039341072
-0.3444361605549854,-0.7412431787912768,1.292384824043034,-0.27390694457658815,0.28365839264003995,0.8859189924029885,0.3468588190982306,0.0419617316110314,-0.015337047378988333,1.2692183113066262,-0.4826373154798133,-0.14975022292470094
-0.3806015998186119,0.510594385939334,1.5816136282874604,-0.2777129604897032,0.2887643363853066,0.9017351283323449,0.34408168955540724,0.044849374910340606,-0.006319696297218392,1.2963259957024302,-0.46272374985314,-0.1333037720551621
-0.2599119812135338,0.5855286690885694,0.795315386068758,-0.28031208024374366,0.2946196229453164,0.9096882820152656,0.34127856881562446,0.047795571073941154,0.002777186319603088,1.3118366472858802,-0.4434623646312234,-0.12446611410995723
0.47479735531672546,-0.5111261409494996,-0.371226163332151,-0.2755641067967019,0.289508361650067,0.9059760204649197,0.3385229278092508,0.05069065462573166,0.011836946321750863,1.3342415845791227,-0.41918490318591256,-0.11470335502673304
0.7322014337584141,-1.5573366456684692,-2.158435997484791,-0.26824209262277754,0.27393499554147416,0.8843916609725198,0.3358405069429798,0.05343000451991716,0.02068086273379912,1.3600483901502547,-0.3993170948132152,-0.1040777700344998
0.3854906300813932,-2.3342013342956975,-3.614956866006247,-0.2643871864081275,0.2505929827202518,0.8482420931204631,0.33319663513799364,0.05593593429110778,0.02916328347540687,1.3930487398379485,-0.3864416449079505,-0.0861904209419942
2.0633832822897546,-1.5205209762563856,-5.3915899509132235,-0.24375335404643203,0.2353877732975509,0.7943261948164451,0.33075910165201244,0.058289811971470026,0.03710654524602558,1.427069657690872,-0.37169724800698367,-0.07117440169576508
2.875546018370332,-0.8768637243835486,-6.554002337219806,-0.21499789450546333,0.22661913624970972,0.7287861729091807,0.3286091227550136,0.0605560032833138,0.04439440681222098,1.4652135053713704,-0.3560660927091782,-0.05260700272827859
2.079305768260511,-0.612651814664103,-6.894771837231855,-0.19420483728761928,0.22049261824000704,0.6598384560779638,0.32666707442554554,0.06276092941642993,0.050992791225515234,1.5120307398077752,-0.3404716204395757,-0.028903572530906307
2.2993982390113743,-0.7550552405814718,-6.027956898101977,-0.17121085541146108,0.2129420660029603,0.5995588884442974,0.3249549659096995,0.06489035002886327,0.05698837997594636,1.5563966920679275,-0.3240804040125712,-0.00912849520119463
1.9583487722658128,-0.9456511840674406,-4.573369264222027,-0.15162736812652802,0.20348555437365543,0.5538251968243049,0.3234386922623256,0.06692520552711725,0.06252663182039983,1.5906716099777696,-0.31270518180133156,0.008783405866922195
1.6400673322860226,-0.919639257163791,-3.32224402301314,-0.1352266951702514,0.1942891620075729,0.5206027573367529,0.3220864253408486,0.06886809710376597,0.06773265927740357,1.6114433495491116,-0.3043836457944465,0.021286593667385167
1.3947008834503254,-0.8813148127594096,-2.686018599688707,-0.12127968664748809,0.185476014076968,0.49374257194023774,0.3208736285014818,0.07072285720307853,0.07267008488644588,1.6215695949051787,-0.2956994137978989,0.02357198435520652
0.6194587209488839,-0.7950710123121331,-2.5707445601426975,-0.11508509957645906,0.1775253041315589,0.468035126913417,0.31972277753144074,0.07249811020471411,0.07735043605096605,1.6302825035425592,-0.29446734570669286,0.026331408802095835
1.454444531228918,-0.11248688688170164,-2.2247039992764974,-0.10054065458926356,0.17640043528788465,0.4457880874179121,0.31871737100802067,0.07426211451816439,0.08180831682550377,1.6367724509237285,-0.2927997297028626,0.026598884057809274
1.28992496450405,0.2722427434925991,-2.583147277529074,-0.08764140523254375,0.17912286266195965,0.4199566152199998,0.3178409569752846,0.0760533431047469,0.08600788288383615,1.6413088768809831,-0.2892301867788727,0.023603780098287508
1.154244398401473,-0.08893354622626574,-3.0685610948284507,-0.07609896150652275,0.1782335272195752,0.38927100495759215,0.3170799673772288,0.07783567833710435,0.08990059284640323,1.646833935375012,-0.2875941517759896,0.02285810975390201
1.2954765576724958,-0.9221083043868434,-3.4788127034763927,-0.06314419621935936,0.16901244438181404,0.35448287870040346,0.31644852542914903,0.07952580274314526,0.09344542155417417,1.655845023122125,-0.28651676032620405,0.02105685397625301
0.8721909361139019,-1.8749267995370058,-3.331181843785475,-0.05442228705317021,0.15026317680552279,0.3211710610071259,0.31590430257078167,0.08102843447761406,0.0966571320924581,1.6695641099944303,-0.2874469872392521,0.02079184040508955
0.31929509424341984,-1.8652575607619273,-2.5561632482181262,-0.05122933618210403,0.13161060161482108,0.2956094290962916,0.3153920092204113,0.082344540464345,0.09961322631734716,1.683729412086741,-0.29048948903025973,0.02139001202898061
0.4814766987805793,-0.6530708976150759,-1.4792015188673902,-0.04641456930191666,0.12507989278464304,0.280817414238245,0.3149278635377666,0.0835953393642339,0.10242140039696203,1.691516698110458,-0.2892400245317578,0.01764096178098956
0.40299280847521485,1.0941912614991207,0.792908821661068,-0.04238464130724043,0.13602180515506346,0.28874650227762677,0.31450401713416787,0.08495555738538128,0.10530886535519843,1.6878466947926172,-0.28887145821106386,0.011829714731625973
-0.44073918501842085,1.9861393374574148,2.366852999681092,-0.046792033058911754,0.15588319808570086,0.3124150317454048,0.3140360968140376,0.08651438933139569,0.10843301560282227,1.67247464769359,-0.2916080654648886,0.003599707027297727
-0.7744347040626312,1.6098385542727787,2.325964966405056,-0.05453637992643842,0.1719815832686017,0.33567468088956165,0.31349073302696306,0.08823420512564083,0.11178976233668875,1.6540108239121416,-0.29678575014279984,-0.005679798363305066
-0.47954601975476546,-0.049557008238669556,0.9798537077821468,-0.05933184001679919,0.17148601319729184,0.34547321774836875,0.31289741464005677,0.08994906521928364,0.11524449443695316,1.6437586834009128,-0.3020887381274227,-0.01475913578285637
-0.1555601166281374,-1.465512876170273,-0.4608268653742488,-0.06088744114831017,0.15683088476315676,0.3408649491976291,0.31228854024218305,0.09151737403186078,0.1186531438527402,1.641023262598409,-0.3048799808967016,-0.024530892866770793
-0.13202269000124514,-0.9603171375845003,-0.2045517123687004,-0.06220766801881325,0.14722771360195935,0.338819432119663,0.31166646357589944,0.09298965113497241,0.12204133809820479,1.636779843780804,-0.3046508989257748,-0.029976450114654052
-0.7791662246099227,0.20450561064258893,1.2647308771740748,-0.06999933009075525,0.14927276966267466,0.35146674060871436,0.31096647029063795,0.0944823787982341,0.125556005425733,1.6277348875126374,-0.30814365034038166,-0.03648869375543237
-1.305701415377257,0.5464642541174535,2.198362896789248,-0.08305634395268081,0.1547374120817049,0.37345036908523443,0.3101359068696757,0.09602975288446464,0.12929050903311268,1.6228737134109745,-0.31771429646861793,-0.040122463629557015
-0.7580569761101806,0.13359330539635655,1.0831291181427316,-0.09063691354434368,0.15607334510580806,0.38428166002456354,0.3092295377544912,0.0975904863006376,0.13313332554746468,1.631631027472418,-0.3225821160747942,-0.039692166321474404
1.3210575554921067,-1.1407517730480696,-1.2918152031146928,-0.077426338284702,0.14466582763030525,0.3713635082821598,0.3084552743889503,0.09903714454460533,0.13684696054728007,1.6478232729928195,-0.3203824439764602,-0.03650666751006662
2.245117430405608,-0.8309890770235256,0.16822485546514748,-0.054975164482468766,0.13635593704581053,0.3730457567992101,0.30790552275641353,0.10040070388458551,0.14057741803188994,1.65278007025795,-0.3051765909542171,-0.042017928336781474
0.2556412200580679,-0.5542455502748292,-0.08837206800803106,-0.05241875233902835,0.13081348166694579,0.3721620361388825,0.30738133524473976,0.10170883867201587,0.14429903831009408,1.6372110333967476,-0.2933027095443824,-0.04712505950783691
0.16557235202425727,-0.6844257332812432,-0.917830214584826,-0.05076302885579408,0.12396922448711442,0.36298373419818525,0.30687370496752825,0.10294853088917773,0.14792887557094275,1.617381283748689,-0.2899202561930584,-0.05137174947683862
0.7311691064979186,-1.5776395627943478,-1.1230239304209084,-0.04345133795424393,0.10819282921180087,0.35175349514499155,0.30643919159769795,0.10403045915711276,0.15144641044376964,1.6069696016043797,-0.283205153252626,-0.05089696653096412
0.9403913016789789,-1.9942970485778257,-0.589865110966763,-0.03404742514764797,0.08824985917178274,0.34585484416716905,0.30609871735383165,0.10491295772910521,0.15490495880813673,1.605751629166555,-0.27183629171239854,-0.046945976753297425
0.9783422752049112,-1.6234550773732792,0.19661415834696522,-0.024264002614275394,0.07201530876092044,0.347820985706692,0.3058560773331123,0.10563311080061774,0.1583831685874596,1.5992096895190768,-0.25996730486131014,-0.03998839473940066
0.48910361261234436,-1.087198729912794,1.9261869761127592,-0.019372966597475127,0.06114332170480035,0.3670828550372833,0.30566234767146777,0.10624454400399914,0.16205399705578302,1.5742535228596972,-0.2505845816447025,-0.042317785909438466
0.06147036939013879,-1.173131570893094,2.3091790320098555,-0.018758262917313438,0.04941200625808475,0.3901746448412401,0.30547476504648746,0.10673866405553555,0.1659557434169846,1.5345741744277432,-0.25399248949750797,-0.03781228914558127
-0.3494337713615857,-1.4651300787316595,1.2143846571380161,-0.022252600552824763,0.03476070579825025,0.4023184911411841,0.30525223904593307,0.10708627110574842,0.16997892823847124,1.4953555891737917,-0.25999493310699845,-0.03448417694413311
0.07870244943928462,-2.7507616441736644,0.25961150899102176,-0.021465576076023285,0.007253089971356742,0.4049146061730666,0.30503758328997077,0.1071588020038408,0.17402807420969643,1.463293085928789,-0.25801529892599184,-0.03323890153997597
0.3386501325181685,-3.651905826685701,-0.7761159784611904,-0.018079074826535802,-0.029265967479235704,0.3971534465619302,0.3048567925457464,0.1068661423355899,0.177999608586545,1.4375775981553434,-0.25436222012963566,-0.022906288864348756
0.34152886104923513,-3.511837380128829,-1.0510705875981654,-0.0146637862923811,-0.06438434049556717,0.38664274092088113,0.3047101546861002,0.10622229894502525,0.18186603590933242,1.4116361504426447,-0.24961568910939666,-0.014962772707352023
0.16910819926560264,-2.534995567939697,-0.7017046493862517,-0.012972704337523702,-0.08973429560834847,0.3796256945838618,0.3045804276456246,0.10532495600899894,0.1856622927703181,1.3814334974479527,-0.24657297696470903,-0.011241105974631821
0.2158028351472458,-0.9551013509250167,0.43255374035680405,-0.010814676034286937,-0.09928530890411685,0.38395123189074654,0.304472280887699,0.10433210294214977,0.18950180500340577,1.345418065331819,-0.24558476838195,-0.007818913727744736
0.24178380508663333,0.5281377237271635,1.7248825605807774,-0.008396838037463494,-0.0940039317848932,0.40120005711101303,0.30438831250920123,0.10339206364531235,0.1935138054848407,1.297279371517482,-0.24535223458054292,-0.006390847578186143
-0.22667329252524804,0.9972451674498818,2.257108796132193,-0.010663570912050545,-0.08403148033329605,0.4237711445678318,0.3042816768024642,0.10255174886076189,0.19775151683579878,1.2351443266059836,-0.2439941815270779,-0.005835472986294471
-0.42581840117430586,0.7975818712578054,2.1864972697394243,-0.014921754828615774,-0.07605566179899144,0.44563611677650583,0.3041324592575133,0.10179119225977173,0.2022078779039564,1.1560308692086803,-0.24610574351493403,-0.006102931916871751
-0.16009916505195693,-0.021083945068540836,1.0288364620520076,-0.016522746443350392,-0.07626650124496422,0.455924481167063,0.30396723179677293,0.10102852726436898,0.20676712261371996,1.064371579428926,-0.25085865573165345,-0.011516742046162237
-0.42681413139905683,-0.3756470210374816,-1.3090748711575593,-0.02079088766194057,-0.08002297137137537,0.44283373274808846,0.3037593229248006,0.10022829756854175,0.2111954598422198,0.9744378765224802,-0.25625021706392814,-0.010153964572570146
-1.1285144233508622,-1.2208591717103743,-3.972837470132439,-0.03207603164320656,-0.09223156281559583,0.40310535893476246,0.3034385626155381,0.09930598196100116,0.21522651334146636,0.9017836624269641,-0.2646155612183314,-9.630206874670366E-4
-2.1135351108867733,-1.5277408486004262,-5.037216356425408,-0.053211382279662385,-0.1075089709601234,0.352733196496414,0.30290644880463513,0.09823089227543005,0.21875384522758848,0.8551994860125203,-0.2752888770225256,0.024477457483757875
-2.6907663083070594,-1.4767074583958597,-4.1602974472421295,-0.08011904476129984,-0.12227604521401217,0.31113022295389164,0.30210525837493013,0.09700813185062075,0.22186514738758437,0.8272283855482994,-0.28746800772756664,0.05942605208455726
-2.572330128628162,-1.1321096027077238,-2.085096923132806,-0.10584234547262088,-0.1335971409880432,0.29027925418861905,0.30104683494386153,0.0956721604706016,0.2247679398645881,0.7982273668218617,-0.29701054687186224,0.0845171268043588
-1.3618960661730977,-0.9959353815648296,0.5028835438688084,-0.11946130582994437,-0.1435564945810826,0.2953080895149039,0.2998522219122638,0.09423659555687816,0.22772102069373062,0.749863080391527,-0.30071745331049216,0.09746700452889773
0.021156798135015937,-0.34937534994266484,2.7582162726774366,-0.11924973785332312,-0.14705024800241778,0.3228902516251689,0.298659724560385,0.09276609310972228,0.2309499231378107,0.6795850933137688,-0.305312633625873,0.10262705515873585
-0.018153879960946005,0.9577492389365663,3.2974848419364986,-0.11943127664887487,-0.13747275582712576,0.35586509930748855,0.2974654118205912,0.09139136558217859,0.23450857405134354,0.5909513605886059,-0.3194507552917296,0.10204436210056136
-0.8568863065959188,0.9564698063403336,2.674612973947591,-0.12800013952330505,-0.1279080579775101,0.38261122844914186,0.29618541045396846,0.09011228503099317,0.23833468625031468,0.48198094409138315,-0.33751682856591747,0.09570543269975204
-2.5041366776353926,0.334538647210428,1.7252045712574244,-0.1530415057399408,-0.12456267158018103,0.3998632737761028,0.2946549954307765,0.08886665834303328,0.2423333188986993,0.35168656766927986,-0.3565265122255426,0.08330123203929476
-3.6485568199738996,-0.4470576280432267,-0.5627724722387037,-0.18952707312416378,-0.12903324776068814,0.3942355491795052,0.2927597247418975,0.08757632589426759,0.24627567430237585,0.21693916500864402,-0.3747136090200429,0.06310651494027911
-4.233567488337748,-0.05021528269319432,-1.257772544260852,-0.2318627470612652,-0.1295354005763961,0.3816578240180308,0.2904410973231102,0.08628097191745704,0.250092252457249,0.09281469832101226,-0.38902314315348424,0.05446103586565196
-4.040115561834405,0.6821564692963797,-1.010031283747432,-0.27226390177657306,-0.12271383603590615,0.37155751140631604,0.2877184583662002,0.08505383358452666,0.2538078274882626,-0.0048560077376632454,-0.4058208173361555,0.05762059766709013
-3.96946710508984,1.0029006513849605,-1.0485065657220345,-0.3119585719402264,-0.1126848297462223,0.36107244598345517,0.2845988727165261,0.08392698531225146,0.25741855186739115,-0.08659103274763556,-0.4255939165343885,0.06365310251459869
-3.3237450781073195,0.34296566603087486,0.18550735320674344,-0.34519602197838467,-0.10925517316257236,0.3629275194740585,0.2811469125738996,0.08283443360504616,0.26104782698101114,-0.16627850989605591,-0.43315751065849073,0.06763191920139602
-1.8032462571959436,-0.7507479523608127,3.091662350042763,-0.36322848414728715,-0.11676265251837524,0.3938441422834457,0.27751462781361463,0.0816668071059609,0.26498626831581457,-0.24565490154515232,-0.43154631293618306,0.06683795828646602
-2.1423704591704333,0.4418553748785724,3.6603676648411354,-0.38465218826013436,-0.1123440988683519,0.43044781811370114,0.27366810601698977,0.08054336614238825,0.26929074640073897,-0.3258132943200474,-0.4306948062040101,0.06465587961435224
-0.9494193462262277,0.28790009282593587,2.444151248816675,-0.3941463815101849,-0.10946509800444322,0.45488933005555754,0.2697266422899865,0.07944871518681117,0.2738396395996189,-0.399635682918287,-0.43127323654483884,0.06683732308997828
0.08333809330808342,-0.4075092006452724,1.2257495561422658,-0.39331300059573154,-0.11354018991981055,0.46714682534300384,0.2657935123719415,0.07831331331299127,0.27851110774863347,-0.46332632829466475,-0.4348687847607051,0.07000232403936094
-0.7590613693077696,-0.1979308309825533,0.3302282183017066,-0.4009036141191458,-0.11551949818539509,0.47044910745220914,0.26178447632035895,0.07715811835695793,0.283215598718002,-0.5291798332294954,-0.43870639714630044,0.07208361992892628
-2.3127131592903174,1.1220150485132168,-0.011077519878933989,-0.4240307451951173,-0.10429934795105282,0.47033833225589583,0.25754416896318605,0.07611512490076013,0.28791898193543214,-0.6012844439801976,-0.44118462667298874,0.07419396151256538
-1.3218749449434863,2.2463321139195616,0.6224637037665413,-0.4372494943490901,-0.08183602731395156,0.47656296915442975,0.253171674117428,0.07529676464591238,0.29268461152045633,-0.6704110159395851,-0.4569074459232455,0.07742953062158023
-1.3297814407083566,3.1311008397318694,2.293300326516982,-0.45054730845894436,-0.05052501961648845,0.499495971907007,0.24866620113354376,0.07479151446104072,0.29767957112788035,-0.7408524800521246,-0.4805531493897197,0.08268580490414415
-1.4587261637236606,2.98142601717027,2.2644585648178057,-0.46513456977013024,-0.02071076011118639,0.5221405570490392,0.24401485553980815,0.07458440686455807,0.3029009765816632,-0.8081894966064058,-0.4996882992242683,0.08444788414761364
-1.4973901312710796,0.8700330084000889,2.6588001021485437,-0.4801084707481483,-0.012010430221653033,0.5487285574762365,0.23921377093963928,0.07446430256502608,0.3083882620337752,-0.8738958187784642,-0.5094232091403668,0.08654990524648323
-2.756447256354641,0.0837093495270809,1.524552794126675,-0.5076729426955807,-0.011173336745092723,0.5639740850767392,0.23413704162615723,0.07435256920007259,0.3140280027584845,-0.9457096847166285,-0.5094626288160429,0.08028034184327312
-1.6011846990911955,-0.2389439499059448,-1.6240977276599664,-0.5236847893286,-0.013562776190744035,0.5477331081631537,0.2289001938499239,0.07421694144119667,0.3195053337176882,-1.0143375473212106,-0.507175059498374,0.07332435242445731
0.40616791222171883,-1.074321455020436,-1.3163942268028088,-0.5196231102971683,-0.024305990500818837,0.5345691661893627,0.22370396286309704,0.0739738815416213,0.3248510252600963,-1.0612589109763784,-0.5104612963700105,0.0756656921550756
0.8622244477864087,0.02019170781428748,1.441599806382176,-0.5110008660120264,-0.02410407342718916,0.5489851639309618,0.21859395431719436,0.07373284081273708,0.33034087677669816,-1.104454048922729,-0.5129472319014166,0.08184543847836431
0.08599389286351929,1.9450163487614942,3.4277944505518603,-0.5101409271026124,-0.00465391037431925,0.5832631076703085,0.21349254516019361,0.07368630171003411,0.3361735077230318,-1.1487322662718462,-0.5136342550753369,0.0854897873392306
-0.7002045761741966,1.8359183168868183,4.6714113742859915,-0.5171429727078465,0.013705272384189213,0.6299772203690266,0.2083211155487056,0.07382335443081263,0.3424732797859112,-1.1899246064848426,-0.5126484963204132,0.09309546232813384
-0.6204048113494055,0.7566413812285312,3.439657314204771,-0.5233470206826693,0.021271686027351997,0.664373792742251,0.2030876454588561,0.07403607128633155,0.3491170175648346,-1.233079991218434,-0.517493737283847,0.1000967265299341
0.1725862059790428,0.34229766684164425,1.6196654247831916,-0.5216211586614549,0.02469466261925895,0.6805704466280594,0.19787143398883297,0.07428301790700445,0.3559227218789958,-1.2739155088753955,-0.5314990919394741,0.11168477650179878
0.7660767662337269,0.811318992339483,0.14586156046967458,-0.5139603911703491,0.032807852361309855,0.6820290622001536,0.19273183019200857,0.07461109642328442,0.362743012348552,-1.3168228441233105,-0.5518860512394708,0.12740277332989078
0.4580797839306671,1.7542487209414748,-0.7050375725708026,-0.5093795934334312,0.05035033917861946,0.6749786866320338,0.18763803437152946,0.07511459980381643,0.36949279906400284,-1.3767532507273044,-0.5681368902768575,0.13113519356030442
-0.6239957632670459,1.838326258789707,0.29994773501161676,-0.5156195509266277,0.0687336013556186,0.6779781639151063,0.18248183897751313,0.07580193580200946,0.376272580551614,-1.4405229497189962,-0.5728598943326892,0.12798513271453357
0.07279787789815419,0.958018298753386,2.420685417398095,-0.5148915721639178,0.07831378412901868,0.702185017548022,0.17733292337096118,0.07658507362579516,0.3832944305701436,-1.4928629493677656,-0.5727017944809275,0.13073847797922425
0.4971239382734415,-1.1396470677503567,4.165449888443117,-0.5099203328922992,0.06691731370624608,0.7438395155014026,0.17223372015601426,0.07725424674790043,0.39073282555889655,-1.5324735007552546,-0.5777103798413568,0.13989463843424074
-0.39970995000773757,-1.666755904496333,4.702433843599275,-0.5139174323030344,0.05024975503383173,0.7908638528863194,0.16709454594785342,0.07775674428700706,0.39864146391098787,-1.56305960033103,-0.5840527183131128,0.1567249853385615
0.7192513646821217,-0.7716918552420495,3.3154427264854442,-0.5067249188169785,0.0425328366538978,0.8240182794101147,0.16202729687294548,0.0781820726440392,0.4068816465209066,-1.5951861622800139,-0.5909199073226503,0.17399334191236285
1.2941789658081397,0.9366551149277378,0.5296322690274158,-0.4937831294481686,0.051899387593816446,0.8293146019820069,0.15708946568883292,0.07870106650837695,0.41517479235536037,-1.6369765521321211,-0.60029487746816,0.18307570589401895
-0.09678826254080612,2.1818958196551645,-1.2233552064461377,-0.4947510120519428,0.07371834530267637,0.8170810501909868,0.15214195567889896,0.07943824994492638,0.4233456026746384,-1.687574998897366,-0.602955912850625,0.18580871669033588
0.907521780165353,2.501514174986703,-1.1970165449732788,-0.4856757944531362,0.09873348649341142,0.805110885008808,0.1472851978429246,0.08042558478779184,0.43139671134477015,-1.741973124309352,-0.6056571588200753,0.18917718349797236
2.4254295974294595,1.268563461270368,0.5351580485844449,-0.46142149902096735,0.11141912082256906,0.8104624653750353,0.14267098295585068,0.08153977597111342,0.439501335817368,-1.797933257244608,-0.6165859683812402,0.19001654176985489
1.8125544067846724,-0.19069373610262105,2.131312227754346,-0.4432959553582581,0.10951218350416622,0.8317755871761934,0.13823802350135247,0.08263489778167721,0.4478190915032136,-1.855918275924271,-0.6307523100364651,0.18830769095199396
0.17197120884424316,-1.2840246186307962,2.9328939062202366,-0.44157624330825423,0.09667193760486012,0.8611045255828429,0.1338222611669699,0.08360161713611795,0.45643013656657017,-1.9172585049638946,-0.6432241051590553,0.18389811255706462
-1.4304290188670261,-2.296368301405907,3.6216735417831223,-0.4558805331771987,0.07370825510407936,0.897321260191167,0.12926345593709515,0.08433869967068366,0.4654033489679149,-1.972904303486908,-0.6531660209293628,0.18730619166216034
-2.4212473985910954,-2.1872202144872657,3.944168195907451,-0.48009300662191867,0.05183605344808852,0.9367629412686512,0.1244625259781851,0.08485706019357829,0.4747709781712186,-2.0160181447200447,-0.6506652835557789,0.19979003056393413
-3.185484167068068,-2.064327135128265,5.149802908518946,-0.5119478475805882,0.03119278255821894,0.9882609692027701,0.11934304761680849,0.08516898801218835,0.4846535876423528,-2.041890865542387,-0.64795544104267,0.2296934934740828
-2.8665772212012905,-1.8460805743476176,5.851549768819267,-0.5406136191518711,0.012731977227373927,1.0467764655830394,0.11393691154612634,0.08529630778161627,0.4951213520642104,-2.0517284939921905,-0.6478243432647517,0.27153543727536245
-1.6843644201708974,-0.20282802377681938,4.712024621261468,-0.5574572629770953,0.01070369703494133,1.0938967107424344,0.1083623390409568,0.08540334474957323,0.5060603189271298,-2.0704372418985457,-0.6457657814201168,0.3066798878012431
-0.27227460880807447,0.5144712159129283,2.1955175233929,-0.560180009004318,0.015848409079077336,1.115851885485627,0.1027605390761236,0.0855618288368216,0.5172188375325737,-2.110325804732754,-0.6390385268172296,0.3231447583741137
0.8778293455008084,1.1843027294296913,-1.096795818552287,-0.55140171574552,0.02769143610866196,1.104883927545257,0.09724652204191629,0.0858387431917187,0.5282676765610654,-2.1743107034576137,-0.6365875221709782,0.3208526340620468
0.17197133204185613,1.2026901842438336,-2.271598684528755,-0.54968200246354,0.039718337682278095,1.0821679412077114,0.0917497021401444,0.08623592655966375,0.5390893557312592,-2.260270438305057,-0.6303820848435059,0.29707637634883255
-0.45914601636786906,1.7177818306388588,-2.539999990854646,-0.5542734625245916,0.05689615560471252,1.0567679418668992,0.08620696763878825,0.0868048881029936,0.5496570349137221,-2.3534657720933048,-0.6246229935015521,0.26708616126978163
-2.7435257616633684,2.364352449168981,-1.3666245364930691,-0.5817087195279995,0.08053967956792837,1.043101696807433,0.08038988057353029,0.08761028488067085,0.5600880516486451,-2.4479752392301877,-0.610100785252127,0.22337747354035303
-2.8446366182761427,1.1520039248925167,2.5301889612255994,-0.6101550850749351,0.0920597185593606,1.0684035858541476,0.07428832985916123,0.08853088204568751,0.5707720872683797,-2.529762264936725,-0.5989672274229088,0.17615610200960974
-1.3928321458222057,0.1330110926294538,5.932390892835946,-0.6240834062218349,0.09338982945592483,1.1277274934565145,0.06804749593643639,0.08946478031937251,0.5820493619508781,-2.5779959837228033,-0.5981108608227754,0.16134939587057429
-0.06207442724993474,1.6926171861360424,5.285617363618293,-0.6247041504804596,0.11031600093895583,1.1805836659112698,0.06180045457126405,0.09056794030410452,0.5938551983461098,-2.6102602832021002,-0.5958132681350542,0.15783974797371841
-0.869310760864709,0.28501823842075746,3.0616237090901306,-0.6333972578948006,0.11316618325945686,1.211199902317845,0.05546648213389136,0.09169960211140447,0.605967197098564,-2.634601090128935,-0.5928379434478261,0.15873636915546058
-0.3416169534041471,0.24068824047607276,-1.2322423439496313,-0.6368134273524847,0.11557306561041958,1.1988774791537764,0.049098348002705405,0.09285533274167608,0.6179559716221317,-2.6644632547644496,-0.5951513487581813,0.16184412465785186
-0.9368913505501699,1.4537727554128028,-3.5688664151433556,-0.6461823406485748,0.13011079283960408,1.1631888158000467,0.042636524740652666,0.09415644064099009,0.6295878595201392,-2.370659332143452,-0.5964876768964636,0.15922110503784798
0.23008083972622737,0.6595611504176759,-3.5663947288629174,-0.6438815323027396,0.13670640419635743,1.1275248693085689,0.03619770956154401,0.0955235046523974,0.6408631079612034,-1.9874997191070713,-0.6154604071250667,0.1658213320638549
0.7965070282301999,0.8574115132462636,-2.020186157517694,-0.6359164621984708,0.14528051913717366,1.1073230081849388,0.029838545081697705,0.0969763098112964,0.6519363377955468,-1.9201063679791546,-0.6367497640634233,0.16679830306430427
2.222998468969503,0.8712778057926998,0.9597469867807695,-0.6136864780056546,0.15399329700035488,1.1169204778382262,0.023701680438810775,0.09851624274687977,0.6631055423242779,-1.943872352220948,-0.6521142062466786,0.1512288354533769
2.2831967298461358,0.7992649207571103,0.9481090049693013,-0.5908545112175274,0.16198594602927635,1.1264015676760004,0.017793135458701776,0.10013610217096586,0.6743695577492675,-1.9857882079922375,-0.6698223664573878,0.13933315460169127
0.9280043822780981,0.40347337389265203,-0.04665266264939767,-0.5815744676021716,0.16602067967801953,1.125935041059934,0.011977390912672085,0.10179630893063754,0.6856289079082007,-2.0266609350867073,-0.6798653651027331,0.1297067022484748
-0.06419574612043549,-1.6587094910662545,-0.6671704869379117,-0.582216425049027,0.14943358513810745,1.1192633363396791,0.006155226792317326,0.10329064474861761,0.6968215410214227,-1.727464783458115,-0.6847844334757132,0.12677013893242678
-0.4390836766825866,-3.4178575307755734,-0.38991859179795973,-0.58660726171771,0.1152550105943024,1.1153641505088532,2.8915430625716613E-4,0.10444319482879913,0.7079751822772079,-1.6653219083411832,-0.6908143959267501,0.12911376413629727
-0.5470179372524755,-4.013110912509236,-0.4212374776499253,-0.5920774409679668,0.07512390236621022,1.111151775826508,-0.005631619971082881,0.10519443383566973,0.7190866997871113,-1.6702950658581701,-0.6887597221971755,0.1287294811992361
2.239896866016937,-1.960316897327416,0.14634879407298748,-0.5696784728084534,0.05552073383110103,1.1126152637345263,-0.011328404571834354,0.10574964116157089,0.7302128521757676,-1.355406485856992,-0.6955186471845867,0.13353638905146242
2.5324693849761757,2.056756218168116,0.09068536166948561,-0.5443537795247426,0.07608829555306135,1.1135221173309515,-0.01677194224540923,0.10651052410009444,0.7413480731001855,-1.2829592978747306,-0.7036175406891736,0.13580109052818823
0.8237806516250639,3.51583997650915,-0.42911750463096504,-0.5361159731926213,0.11124669453230138,1.109230942380557,-0.022133101857504184,0.10762299102055188,0.7524403822760586,-1.2739212914386129,-0.7058552286452635,0.13518720487775815
-0.20535515688709413,1.1824582845942777,-1.3590466409353534,-0.5381695247155918,0.12307127711394414,1.095640476274974,-0.02751479698436984,0.10885370376418275,0.7633967867939135,-0.9545824316502671,-0.7059027563669399,0.1355729281708027
1.2518786757615779,-1.1654378922449682,-2.2449956063289944,-0.5256507382377926,0.11141689845199013,1.0731905207134798,-0.03277130424925567,0.10996787272379904,0.7741286917611716,-0.8800801121021365,-0.7059713951263207,0.13521549859819237
0.6881207408196254,-1.8957573365443119,-2.276101221973334,-0.5187695309834034,0.0924593255102818,1.0504295090024947,-0.03795899944313568,0.1108924659582356,0.7846329866164072,-0.863797119187709,-0.705031734250291,0.13799025091084638
-0.15541339624163192,-1.0184094163223194,-0.7543842444167159,-0.5203236649110821,0.08227523157469085,1.0428856667269455,-0.0431622359759451,0.11171521825559255,0.7950618430505736,-0.8500085242256934,-0.7052735812720469,0.1408473284847146
-0.5573167806560606,-0.03138647435155556,1.024941921331037,-0.5258968325930726,0.08196136683819072,1.0531350857111634,-0.04842120418432873,0.11253483190565466,0.8055931936722912,-1.1701832022932583,-0.6936868330762347,0.13884725286826616
0.30494966048802136,0.21652233442645602,1.8977457702942966,-0.522847336056354,0.08412659013405877,1.0721125429899272,-0.05364967742802678,0.1133760977881915,0.8163143188625547,-1.2586730388136904,-0.6775017852553711,0.13642374024840298
0.6986509577335771,0.5194575649127604,1.2762908751351834,-0.515860826635179,0.08932116566707855,1.0848754514560057,-0.05880828557907469,0.11426930942489744,0.8271630731346262,-1.2881182738122052,-0.6683475319507175,0.1342217943836228
0.704566916749949,1.0824897921629628,-0.3057265767908961,-0.5088151576251625,0.10014606334675286,1.081818185756432,-0.06389643704159727,0.11527077003598057,0.8379812547503853,-1.6243974267920795,-0.6670207506883781,0.1352266715910465
0.8993192392057398,1.914608965081758,-1.6728070389411378,-0.4998219654341186,0.11929215256962199,1.065090115740922,-0.06889465658421953,0.11646369153501292,0.8486321556697284,-1.7037990604612752,-0.671644188606917,0.14307488794891565
0.3729775396793756,2.55636076257745,-2.492310698001502,-0.49609219012069183,0.14485575962400532,1.0401670093179818,-0.07385557837454121,0.11791224909887518,0.8590338255304127,-1.7132028057345736,-0.6814406976113607,0.15063130790182305
0.3612947188944237,2.64158053703057,-2.4149814374026914,-0.49247924301250323,0.17127156440387176,1.0160171954837454,-0.07878037069458856,0.11962496470463173,0.8691939972581526,-1.713083991920796,-0.6910767174531438,0.15597061042909077
-1.2137088208528801,3.0145017131823884,-1.3042835548669378,-0.504616330949747,0.201416580861902,1.0029743602266061,-0.08382653389129549,0.12163913046823063,0.8792237406362364,-1.3890116139116315,-0.697370152152277,0.1607931637744367
-1.1551211887533792,3.0813566222781485,0.4433892890329774,-0.5161675425790911,0.2322301463959466,1.0074082530178308,-0.08898820920171396,0.12396143188028262,0.8892978229412415,-1.30551597969015,-0.6973412023526411,0.16231494465396462
-0.8020273460399949,3.147575413784288,2.2917736779693056,-0.524187815860224,0.26370589983025156,1.0303259892852725,-0.0942300872431511,0.12659849081964228,0.8996010826037985,-1.276127926538865,-0.6953719254512452,0.16648962968501851
-0.06786175463481091,2.6422437210251104,2.8450397636095737,-0.5248664333914038,0.29012833644991515,1.0587763862854522,-0.09947875145974835,0.1294997741192927,0.910188846229998,-1.2490828230181132,-0.6963731159260018,0.17511637696907018
0.763888944141184,2.1607321746458035,0.6882151306506946,-0.5172275441207345,0.3117356577134119,1.065658537438131,-0.10465102678534634,0.13261713062674846,0.920845431366186,-1.5516003275219017,-0.7000014219511516,0.18289896567753733
0.621084063261548,1.589775630036221,-1.6956257314969523,-0.5110167036269421,0.32763341365843157,1.0487022805021635,-0.10976119370739462,0.135893464690101,0.9313324539368044,-1.9491699931927382,-0.7011866277617487,0.18393610350265838
-0.14278354464283924,1.527870955235817,-3.2034521796965514,-0.5124445390414558,0.34291212286928396,1.0166677594212254,-0.1148856389832689,0.139322585842147,0.9414991313037737,-2.049388859717735,-0.6982480341811045,0.1870214461383473
-0.4042611153588532,1.3915208034187234,-1.9780076296846076,-0.5164871501046849,0.35682733059244204,0.9968876835664985,-0.12005051036887188,0.14289085906831428,0.9514680079166169,-2.072615478063879,-0.6923275907237414,0.18550519233280305
-0.15070050276308214,2.1695543321147666,0.9877623187567297,-0.5179941550986316,0.37852287342865654,1.0067653065332838,-0.12523045180407746,0.1466760877179944,0.9615356607569202,-2.0698902531199748,-0.6845559876148091,0.17986059803811022
0.9728631290018708,1.0163062579817623,5.069619487556683,-0.5082655240260647,0.388685935781312,1.0574615002757024,-0.13031310693073192,0.15056294698892944,0.9721102755233162,-2.0491149193511973,-0.681223566812328,0.18177711852040507
1.0531988335191407,-0.011176374259957505,7.086656063183886,-0.4977335359262816,0.38857417204121053,1.1283280593235503,-0.13529044217874261,0.15444868862248845,0.9833935558643507,-2.0103120008387467,-0.6837866294378669,0.19637262824547946
0.18422895982349197,-1.0149475069633194,5.210686099289557,-0.49589124636922505,0.3784246971984358,1.1804349191517667,-0.14024935453159454,0.1582329355098883,0.9951979047920206,-1.9581587491880112,-0.6873148253452739,0.21827335759438193
-1.7245022264372107,0.4706413821426614,1.005007580479888,-0.5131362682481408,0.38313111091466584,1.190484994731929,-0.14538071709938105,0.16206424653339846,1.0071027544732458,-1.9124277847583127,-0.6839521738446057,0.2260137696993988
-1.4146414416744297,1.7058999044987049,-4.659786974847146,-0.5272826823486881,0.40019010957835455,1.143887126025001,-0.15065354380501106,0.16606614753973253,1.0185416254778172,-2.207990213571594,-0.6735211431941603,0.21995139007720532
-0.8389935158565759,1.3687469585045657,-6.892097916667234,-0.5356726173197243,0.4138775788574614,1.0749661483988326,-0.15601026985847613,0.1702049232357983,1.0292912867215318,-2.2743045137004883,-0.6647634052028988,0.21211820251160673
0.632911705874979,2.3267683873032157,-4.84015252266056,-0.5293435004024413,0.43714526221042027,1.0265646242540853,-0.16130370474418304,0.17457637576019291,1.0395569327346177,-1.9555249874428182,-0.6629909115968333,0.20587540233380447
2.779934901698933,3.4540114665044523,-0.7660817408612236,-0.5015441520068158,0.4716853761034331,1.0189038070167058,-0.16631914615214735,0.17929322941579734,1.049745970577042,-1.86194944164289,-0.6640702634881905,0.1958681663965091
4.041010016488476,3.714436002715214,2.121140679560848,-0.46113405274516717,0.508829735300344,1.0401152133382023,-0.17093048657652754,0.18438152665506846,1.0601471224779402,-1.8334517751241095,-0.6678134832830949,0.17501039123223905
3.5130713697950062,4.2448757955566725,3.032670650142123,-0.42600333983244976,0.5512784923071071,1.070441919161769,-0.17519051987963288,0.1898943114549192,1.0708515414302955,-1.8177504983894335,-0.6719657981072753,0.15033050628315836
0.5791977905960786,3.819585067565328,0.7020507966502055,-0.42600333983244976,0.5512784923071071,1.070441919161769,-0.17519051987963288,0.1898943114549192,1.0708515414302955,-1.7875151062258783,-0.6862971848832142,0.14762194087002212
-4.206014521399491,1.5679696418627018,-2.742106413835626,-0.46806348410632714,0.5669581883752656,1.0430208556363212,-0.1798711546160758,0.1955638932119468,1.0812817497535254,-1.7567371740957647,-0.6817182436855361,0.13855181517785947
-6.204659016521912,-1.3051215921549228,-5.104591743372966,-0.5301100728846969,0.5539069727454338,0.9919749393435567,-0.18517225522643393,0.20110296281559328,1.0912014989252372,-2.0420473570447597,-0.6706388530370102,0.13065669003143732
-6.222890440281679,-0.7811951199569271,-5.273680612038506,-0.5923389758965893,0.5460950217204752,0.9392381344019312,-0.19109564485300176,0.20656391291073628,1.1005938800593205,-2.108842229945482,-0.6401652546637271,0.12798701713640176
-4.178724468548679,-5.71791861028724,-3.0974561400750584,-0.6341262196480584,0.4889158368956572,0.908263573693516,-0.1974369069077441,0.21145307117041165,1.1096765155932429,-1.797467823139383,-0.5883612178721912,0.11639082026929276
-0.4081899939996868,-5.447910643429632,1.0000650563127058,-0.6382081194968177,0.4344367316790638,0.918264224033111,-0.20381898796006165,0.2157974383900981,1.118859157628326,-1.6580744724716192,-0.5600038077507736,0.12029725711269279
1.656061262585301,-2.9073060051625115,4.769658418556491,-0.6216475072411232,0.4053636722772722,0.9659608071525743,-0.21003546289352384,0.21985107502226497,1.1285187654839426,-1.5615892275329848,-0.5471000574581568,0.13753302841466447
2.1548487906626117,0.26518622410483167,5.688217468550703,-0.6000990198161433,0.4080155344590468,1.0228429805666657,-0.2160364529575527,0.22393123027565687,1.138747195060986,-1.477430524110018,-0.5406424335138779,0.14834501554528273
1.4028953530121409,2.742593007186352,5.099440337643581,-0.5860700665995935,0.435441463917893,1.0738373828032877,-0.22189715349255176,0.22828564481750704,1.1494855686489975,-1.3760671807341969,-0.5662680087557919,0.17085366946922287
-1.0462918519880884,4.4344324415954866,3.316501123506718,-0.5965329848856099,0.47978578734267496,1.1070023932970592,-0.22786248320807234,0.2330835025836933,1.1605555923345339,-1.2762555923162446,-0.5961030222641571,0.18887054009700316
-1.0951920996833848,4.15099865940619,1.8870456573385073,-0.6074849056376492,0.5212957730089164,1.1258728494486567,-0.23393733212866538,0.2382964601972638,1.1718143205773683,-1.4814753939635097,-0.6357059902829707,0.19619968206189475
-0.1267968671209278,4.0128448131685985,0.6799205421043877,-0.6087528742805172,0.5614242202436617,1.1326720547177265,-0.2400248607354037,0.24391070227421233,1.1831410408713736,-1.7732626265099833,-0.6845690253886013,0.2017396709798387
0.1419620209032159,2.6582773570450455,0.2592236477006958,-0.607333254103216,0.5880069932199409,1.1352642911367925,-0.2460981931406863,0.24979077207498193,1.19449368352899,-1.8224353163017557,-0.698356768592594,0.18571119017405402
-0.9421050837522102,2.1250255443971997,-1.003276213268608,-0.6167543047301612,0.6092572481889327,1.1252315292283561,-0.2522657360501326,0.25588334442069166,1.2057459985697647,-1.815451686472688,-0.6871098020944314,0.1495930248447505
-0.8015352844655522,3.3492794158020316,-1.9442297164511004,-0.6247696573956597,0.6427500415983307,1.1057892324984144,-0.25851343248444225,0.26231084469300914,1.2168038906475858,-1.791176928190846,-0.6681348913348921,0.11590333275507164
0.9478435614053448,3.7451637477053468,-2.084031519064097,-0.6152912219934658,0.6802016782382748,1.0849489177735907,-0.2646663445668486,0.269112861323355,1.2276533795828166,-1.7550063033338474,-0.6564935859961447,0.09282798316404317
1.3025803232429172,4.288433420509403,-2.3034712042951173,-0.602265419052186,0.7230860114848293,1.0619142062455054,-0.2706889986227537,0.27634372127658097,1.2382725214079153,-1.7062954824926533,-0.6541938079644922,0.07857619064417937
